accX,accY,accZ,gyroX,gyroY,gyroZ,up,down,right,left
0.0000,0.0000,0.0000,0.0000,0.0000,0.0000,0,0,0,0
-0.1372,-0.0214,0.9669,0.4883,0.1831,0.7935,0,0,0,0
-0.1239,-0.0272,0.9625,-0.8545,-0.1221,-0.7324,0,1,0,0
-0.1223,-0.0338,0.9626,-1.0986,-0.6104,0.0610,0,1,0,0
-0.1302,-0.0262,0.9607,-1.6479,-0.8545,0.0000,0,1,0,0
-0.1345,-0.0236,0.9556,-1.5869,-0.6714,-0.1831,0,1,0,0
-0.1287,-0.0237,0.9612,-0.7935,-0.6714,0.5493,0,1,0,0
-0.1359,-0.0284,0.9689,0.6714,0.5493,0.1831,0,0,1,0
-0.1193,-0.0375,0.9685,-0.6104,-0.4272,0.4883,0,1,0,0
-0.1296,-0.0259,0.9545,-1.4648,-1.2817,0.0000,0,1,0,0
-0.1355,-0.0283,0.9622,-2.0142,-0.9155,-0.8545,0,0,1,0
-0.1273,-0.0320,0.9673,-2.0142,-1.0986,-0.9766,0,0,1,0
-0.1346,-0.0624,0.9758,-1.3428,0.0610,-0.4272,0,0,1,0
-0.1364,-0.0333,0.9731,-1.1597,0.7935,0.4883,0,0,1,0
-0.1337,-0.0238,0.9537,-1.8311,-0.1831,-0.4883,0,1,0,0
-0.1382,-0.0303,0.9655,-1.7090,-0.1831,0.1221,0,0,1,0
-0.1364,-0.0216,0.9594,-1.7090,-0.2441,-0.3662,0,1,0,0
-0.1317,-0.0278,0.9728,-0.7935,0.4883,-0.0610,0,0,1,0
-0.1304,-0.0273,0.9624,-2.1362,-0.3662,0.0000,0,1,0,0
-0.1371,-0.0244,0.9683,-1.5259,-1.0986,0.1221,0,0,1,0
-0.1260,-0.0254,0.9623,-2.6245,-0.4883,-0.4272,0,1,0,0
-0.1313,-0.0192,0.9615,-2.3804,-0.0610,0.4272,0,1,0,0
-0.1256,-0.0206,0.9611,-2.7466,-0.5493,-1.2817,0,1,0,0
-0.1265,-0.0256,0.9727,-1.5869,-0.7324,-0.6104,0,1,0,0
-0.1305,-0.0227,0.9724,-1.9531,-1.0376,0.4272,0,1,0,0
-0.1270,-0.0248,0.9778,-1.0986,-1.1597,-0.4883,0,1,0,0
-0.1322,-0.0220,0.9707,-1.5869,-0.4272,-0.2441,0,1,0,0
-0.1346,-0.0228,0.9680,-1.5869,-0.3052,0.4272,0,1,0,0
-0.1321,-0.0162,0.9564,-3.5400,-2.8687,-0.5493,0,0,0,1
-0.1400,-0.0204,0.9688,-2.0142,-1.7090,-0.9766,1,0,0,0
-0.1459,-0.0122,0.9620,-2.5024,-1.5259,0.3662,0,0,0,1
-0.1436,-0.0195,0.9749,-1.3428,-0.4272,0.0000,1,0,0,0
-0.1309,-0.0242,0.9684,-2.1973,-0.2441,0.0610,0,1,0,0
-0.1432,-0.0173,0.9695,-2.5024,-0.9155,0.5493,1,0,0,0
-0.1400,-0.0203,0.9792,-3.7231,-0.9155,-2.0142,1,0,0,0
-0.1349,-0.0115,0.9670,-3.1128,-0.3052,-0.7324,0,0,0,1
-0.1371,-0.0085,0.9681,-2.2583,0.0000,-0.3052,0,0,0,1
-0.1350,-0.0135,0.9753,-3.7842,-0.3052,-1.5259,0,0,0,1
-0.1256,-0.0200,0.9784,-3.3569,0.1831,1.2207,0,1,0,0
-0.1061,-0.0181,0.9751,-7.9956,-1.4038,3.2349,0,1,0,0
-0.0750,-0.0262,0.9983,-9.7046,3.5400,12.2070,0,1,0,0
-0.1041,0.0050,1.0150,-12.5122,-2.3804,13.3057,0,1,0,0
-0.0354,-0.0150,1.0126,-11.5967,5.1880,25.6958,0,1,0,0
-0.0117,-0.0311,1.0160,-4.3335,11.5356,35.4004,0,1,0,0
-0.0293,0.0010,0.9816,-0.4272,12.0239,51.2695,0,1,0,0
-0.0046,-0.0215,0.9636,-6.2256,5.4932,62.1338,0,1,0,0
-0.0557,-0.0198,0.9191,-12.0239,-0.7935,71.6553,0,1,0,0
-0.1182,-0.0143,0.8763,-3.0518,6.5308,91.4917,0,1,0,0
-0.2461,0.0010,0.8748,-7.4463,-9.0942,74.1577,1,0,0,0
-0.3441,0.0204,0.9344,-3.1738,-21.1182,41.4429,1,0,0,0
-0.4305,-0.0071,1.0493,6.4697,-0.1831,29.4189,1,0,0,0
-0.3237,0.0137,1.0315,-4.8828,-8.2397,-2.5635,1,0,0,0
-0.2622,0.0304,0.9967,-0.7935,6.7139,-7.2632,1,0,0,0
-0.2528,0.0299,0.9432,2.6855,-3.5400,-25.6958,1,0,0,0
-0.2709,-0.0204,0.9312,23.5596,-4.3945,-49.4385,1,0,0,0
-0.2852,-0.0491,0.9199,13.1836,14.5264,-29.1138,1,0,0,0
-0.2168,-0.0983,1.0104,6.7749,19.9585,-49.9268,1,0,0,0
-0.1556,-0.0175,0.9114,2.5635,16.2964,-56.9458,1,0,0,0
-0.0321,-0.0992,1.0001,8.4229,22.3999,-58.4717,0,1,0,0
-0.0449,-0.0909,0.9543,-2.5635,10.2539,-67.4438,0,1,0,0
-0.0419,-0.0872,0.9517,-24.5361,-25.4517,-77.2095,0,1,0,0
-0.0175,-0.0817,1.0026,5.7373,-67.1997,-86.0596,0,1,0,0
-0.0309,0.0798,1.0469,9.0942,14.5264,-17.0898,0,1,0,0
-0.0211,-0.1542,0.9592,16.9067,30.3955,-9.0942,0,0,1,0
-0.0266,-0.0634,0.8950,-0.2441,0.7935,-4.8828,0,1,0,0
-0.0414,-0.0760,1.0421,5.9204,6.0425,0.8545,0,1,0,0
-0.1113,0.0010,0.9182,-7.2632,-5.3101,2.1362,0,1,0,0
-0.0944,-0.0417,0.9791,2.3193,-0.4272,-0.1221,0,1,0,0
-0.1072,-0.0433,0.9801,-2.2583,-3.1738,0.7324,0,1,0,0
-0.0825,-0.0460,0.9683,1.0376,0.3052,1.5259,0,1,0,0
-0.0774,-0.0645,0.9772,0.1831,-3.4180,1.0986,0,1,0,0
-0.0737,-0.0731,0.9939,0.4272,-2.1362,3.2349,0,1,0,0
0.1014,-0.0625,0.9678,-5.3711,1.2817,-2.6855,0,1,0,0
0.1591,-0.0980,0.9833,12.6953,6.7139,33.6304,0,1,0,0
-0.0471,-0.0980,1.0656,17.3950,-11.7187,23.3154,0,1,0,0
-0.2042,-0.0704,1.0337,-7.8735,-36.7432,-7.5073,1,0,0,0
-0.0629,-0.0839,0.9950,20.6909,-14.1602,-26.8555,0,1,0,0
-0.1920,-0.0754,0.8447,7.6294,-15.3809,23.5596,1,0,0,0
-0.0923,-0.1722,0.8768,30.0903,-28.8696,-16.9678,0,0,1,0
-0.3480,-0.1947,0.8616,25.0854,-21.7896,35.7056,1,0,0,0
-0.5135,-0.1951,0.8708,18.7988,-2.4414,61.5234,1,0,0,0
-0.5787,-0.2444,0.9922,11.4136,-7.9956,13.2446,1,0,0,0
-0.4554,-0.3210,1.0415,6.5308,-2.6855,-5.5542,1,0,0,0
-0.3181,-0.2924,0.9612,-3.1738,11.9019,-7.1411,0,0,1,0
-0.2605,-0.2510,0.8955,-8.4839,3.0518,-11.3525,0,0,1,0
-0.2897,-0.2590,0.8785,-3.3569,4.2725,-5.8594,0,0,1,0
-0.3467,-0.2821,0.9075,-4.5166,-22.5220,-12.4512,0,0,1,0
-0.4047,-0.2637,0.9106,-16.4795,-10.6201,-3.7842,1,0,0,0
-0.3661,-0.2706,0.9598,-14.7095,19.1650,18.1885,0,0,1,0
-0.3259,-0.2772,0.9922,-42.2363,27.2217,30.9448,0,0,1,0
-0.3514,-0.1018,0.8546,-36.1328,35.0952,24.5361,1,0,0,0
-0.2053,-0.1310,0.9856,-18.0664,16.8457,11.1694,0,0,1,0
-0.1160,-0.0963,0.9761,1.1597,39.0015,5.3711,0,0,1,0
-0.0834,-0.0723,0.9128,-13.1836,15.8081,-11.4136,0,1,0,0
-0.0479,-0.0580,0.9404,-14.4653,-24.4141,-26.9775,0,1,0,0
-0.1304,-0.0912,1.0021,14.5264,-45.8374,-33.4473,0,0,1,0
-0.1001,0.0803,0.8046,-4.8828,-42.9688,-66.3452,0,0,0,1
-0.2402,0.0504,1.0201,22.2168,63.3545,7.3242,1,0,0,0
0.1239,-0.3049,1.0474,25.0244,26.7334,-39.1235,0,0,1,0
0.1140,-0.1055,0.8726,-12.1460,7.2632,23.3765,0,1,0,0
-0.1465,-0.0444,0.9888,-7.6294,1.4648,12.0239,0,0,1,0
-0.0988,-0.0654,0.9464,0.7324,-0.1831,1.0376,0,0,1,0
-0.0992,-0.0942,0.9844,2.2583,-1.5869,1.8311,0,0,1,0
-0.1168,-0.1018,0.9650,-4.7607,-3.4180,-1.7090,0,0,1,0
-0.1221,-0.1095,0.9960,0.6714,-0.6714,-2.0752,0,0,1,0
-0.0848,-0.1116,0.9927,-3.1128,0.1831,3.6011,0,0,1,0
-0.1310,-0.0663,0.9609,-5.7983,1.8921,2.3804,0,0,1,0
-0.0945,-0.0757,0.9744,-2.8076,-1.5869,-4.4556,0,0,1,0
-0.0979,-0.0952,0.9979,1.2817,-0.6104,-0.4883,0,0,1,0
-0.0885,-0.0867,0.9752,1.4038,0.1831,1.2207,0,0,1,0
-0.0999,-0.0961,0.9991,-1.2817,-0.3662,0.2441,0,0,1,0
-0.0874,-0.0859,0.9840,-2.7466,0.3662,2.3804,0,0,1,0
-0.0854,-0.0662,0.9717,-1.8311,1.0986,2.8076,0,1,0,0
-0.0663,-0.1016,1.0123,-2.4414,0.8545,-0.1831,0,0,1,0
-0.0615,-0.0662,0.9666,-2.5635,-1.0376,2.0142,0,1,0,0
-0.0016,-0.0616,0.9750,-3.6011,-16.3574,-10.5591,0,1,0,0
0.0049,-0.0975,0.9889,-17.3950,-17.4561,-8.9111,0,1,0,0
-0.1112,0.0055,0.8739,-34.9121,-4.6387,7.4463,0,0,0,1
-0.2119,0.0297,0.8643,17.6392,-13.3667,-3.7842,1,0,0,0
-0.0760,-0.0599,0.8755,-0.9766,-2.8687,43.3960,0,1,0,0
-0.0878,-0.1998,1.0935,13.7329,-2.1973,38.9404,0,0,1,0
-0.4321,-0.0696,0.9122,21.0571,-16.7847,24.2310,1,0,0,0
-0.4689,-0.1312,0.9733,-19.1650,-20.2637,14.6484,1,0,0,0
-0.3818,-0.1094,0.9918,-14.8315,-8.0566,-2.5024,1,0,0,0
-0.2772,-0.0392,0.9159,-11.2305,-0.7935,-3.1128,1,0,0,0
-0.1815,-0.0652,0.9523,-3.0518,3.4180,-3.4790,1,0,0,0
-0.1920,-0.1346,1.0055,-2.0142,1.0986,-2.5024,0,0,1,0
-0.2644,-0.0278,0.9558,-18.0664,2.0142,10.4370,1,0,0,0
-0.2280,0.0168,1.0732,-22.8271,14.2212,-3.0518,1,0,0,0
-0.2091,0.2152,0.8065,-33.9966,24.1089,14.7705,0,0,0,1
-0.2001,0.1296,1.0350,7.7515,5.7373,-31.5552,0,0,0,1
-0.1495,0.0874,1.0530,19.4092,-4.6387,-44.1895,0,0,0,1
-0.1709,0.0071,0.8832,24.9634,51.8188,-9.0332,1,0,0,0
-0.1614,-0.0446,0.9338,32.2876,36.8652,-39.4897,1,0,0,0
-0.0828,-0.1505,0.9343,48.3398,27.0386,-40.7104,0,0,1,0
0.0553,-0.3566,0.9872,36.1938,49.0112,-22.0947,0,0,1,0
0.1357,-0.4232,0.9077,24.1089,20.6299,-23.1323,0,0,1,0
0.1508,-0.5005,0.9628,15.1367,7.9346,-11.7798,0,0,1,0
0.1667,-0.3776,0.9730,-0.4272,-9.6436,0.1831,0,0,1,0
0.0569,-0.3218,0.9869,-13.0005,-21.8506,3.9062,0,0,1,0
0.0179,-0.3246,0.9508,-11.2305,-21.1182,1.6479,0,0,1,0
0.0223,-0.3615,0.9951,-16.5405,-32.1655,-3.1738,0,0,1,0
-0.2527,-0.2124,0.8981,-7.5073,-6.6528,-0.5493,0,0,1,0
-0.0881,-0.2360,0.9482,-5.6763,3.0518,-10.6201,0,0,1,0
0.0092,-0.1388,0.7941,4.7607,14.8926,1.2207,0,1,0,0
0.0283,-0.1915,0.9683,-2.8076,-11.2915,11.2305,0,0,1,0
-0.0674,-0.1584,0.9774,-18.3105,-33.2031,21.4844,0,0,1,0
-0.1693,-0.1066,1.0503,-38.0859,-50.0488,7.9346,0,0,1,0
-0.1543,-0.0676,1.1002,-51.1475,-26.8555,21.5454,0,0,1,0
-0.2533,0.1698,0.9404,-20.3857,-6.3477,21.5454,0,0,0,1
-0.2137,-0.0026,0.9463,-0.6714,5.7983,-10.7422,1,0,0,0
-0.2103,0.0228,0.8181,-11.4746,1.3428,7.4463,1,0,0,0
-0.1475,-0.0857,1.0345,16.9067,6.0425,-8.9722,0,0,1,0
-0.2098,-0.0432,0.9360,1.9531,6.6528,5.6763,1,0,0,0
-0.1315,-0.1208,1.0066,3.1128,5.9204,-1.0986,0,0,1,0
-0.1051,-0.1335,0.9535,2.6245,19.8975,3.2349,0,0,1,0
-0.0751,-0.3435,1.0239,21.9727,31.0669,3.9673,0,0,1,0
-0.0247,-0.3944,1.0438,8.4229,10.4980,19.6533,0,0,1,0
-0.0715,-0.2998,0.9531,-19.3481,-15.4419,43.7622,0,0,1,0
-0.0353,-0.2894,1.0109,-25.2686,-6.5308,70.1904,0,0,1,0
-0.1478,-0.1648,0.8947,-53.8940,-10.8032,92.8345,0,0,1,0
-0.2832,0.0598,0.8662,-44.3115,-4.2114,94.9097,1,0,0,0
-0.3103,0.1185,0.9773,-41.6870,5.1270,88.9282,1,0,0,0
-0.4021,0.3300,0.8480,-62.6831,-15.2588,41.8701,0,0,0,1
-0.2563,0.4543,0.8367,-29.7241,-27.1606,11.7187,0,0,0,1
-0.3138,0.4666,0.8599,-20.8740,-22.4609,24.5361,0,0,0,1
-0.3643,0.3364,0.8772,6.1035,1.4648,-14.9536,0,0,0,1
-0.3093,0.2588,0.9451,7.7515,1.7090,-20.9961,0,0,0,1
-0.1979,0.2327,0.9596,12.0850,8.4229,-24.6582,0,0,0,1
-0.2009,0.1702,0.9659,13.5498,5.7983,-18.4326,0,0,0,1
-0.2344,0.2125,0.9314,0.6104,0.1831,-18.7988,0,0,0,1
-0.2004,0.2135,0.9357,4.6997,11.9629,-11.7798,0,0,0,1
-0.2070,0.1819,0.9788,2.6245,4.4556,-35.9497,0,0,0,1
-0.1998,0.2556,0.8337,-0.4883,-5.4321,-42.8467,0,0,0,1
-0.1302,0.1385,0.9360,21.6064,2.3804,-45.4712,0,0,0,1
-0.2131,0.1595,0.9115,0.3662,-13.0005,-47.1191,0,0,0,1
-0.0365,0.1162,0.9713,0.3662,-16.2354,-45.2881,0,0,0,1
-0.0984,0.1222,0.8785,17.5781,-8.3008,-44.3726,0,0,0,1
-0.1017,0.1073,0.8953,-10.9863,-50.6592,-31.1890,0,0,0,1
-0.2253,0.0454,0.9672,7.1411,-4.4556,0.5493,1,0,0,0
-0.2921,-0.1090,1.1395,25.9399,25.1465,14.1602,1,0,0,0
-0.0588,0.0001,1.1024,-2.0142,9.2163,1.4648,0,1,0,0
-0.1566,0.1543,0.8467,-11.1694,4.7607,13.7939,0,0,0,1
-0.1726,0.1831,0.9229,-1.1597,-6.7139,-2.3193,0,0,0,1
-0.2454,0.1426,0.9680,-2.3193,-1.4038,-1.2817,0,0,0,1
-0.1562,0.0854,0.9873,0.5493,1.4648,-2.2583,0,0,0,1
-0.1501,0.1089,0.9683,-3.3569,-1.4648,0.0610,0,0,0,1
-0.1945,0.1455,0.9396,0.2441,0.9766,5.8594,0,0,0,1
-0.1859,0.1342,0.9393,-0.6714,0.3052,1.2207,0,0,0,1
-0.1918,0.1008,0.9547,2.6855,3.9062,0.8545,0,0,0,1
-0.1367,0.0822,0.9746,-2.1362,0.4883,0.9766,0,0,0,1
-0.1797,0.1107,0.9569,-3.7231,-2.6855,0.7935,0,0,0,1
-0.2012,0.1045,0.9684,-3.9062,0.2441,0.6104,0,0,0,1
-0.0977,0.1504,0.8964,-1.8311,1.0376,-4.0894,0,0,0,1
-0.1770,0.1365,0.9333,-7.5073,-12.0239,1.1597,0,0,0,1
-0.2196,0.1217,1.0316,2.0752,-3.9062,-0.2441,0,0,0,1
-0.1885,0.2222,1.0292,4.5776,6.5308,-5.3101,0,0,0,1
-0.0957,0.2874,0.9818,10.2539,8.4839,-24.9023,0,0,0,1
-0.1312,0.2229,1.0365,41.2598,28.3813,-36.4380,0,0,0,1
-0.1094,0.1968,0.9365,22.7661,13.9160,-38.0859,0,0,0,1
-0.0021,0.0176,0.8458,27.9541,2.8687,-47.4854,0,1,0,0
-0.2526,-0.1085,0.9357,32.6538,-8.8501,-38.7573,1,0,0,0
-0.1488,-0.1263,0.8632,7.1411,-27.4658,-27.8931,0,0,1,0
-0.2273,-0.2018,0.8619,34.4849,-8.0566,-9.3384,0,0,1,0
-0.2954,-0.3185,0.9897,30.8228,9.8877,-1.6479,0,0,1,0
-0.1326,-0.4479,1.0270,2.7466,10.3149,-5.2490,0,0,1,0
-0.0750,-0.3783,0.9425,-15.5640,1.4648,1.6479,0,0,1,0
-0.1659,-0.3163,0.8729,-13.1836,3.1128,6.4697,0,0,1,0
-0.0376,-0.3888,0.9630,-11.9019,-10.4370,-0.5493,0,0,1,0
-0.1707,-0.2539,0.9419,-35.8276,-2.9297,53.7109,0,0,1,0
-0.2501,-0.1373,0.9445,-36.9873,-0.1831,60.1807,0,0,1,0
-0.1367,0.0043,0.9487,-44.7388,-15.4419,58.7769,0,0,0,1
-0.1993,0.2640,0.8367,-38.2080,-16.2354,86.0596,0,0,0,1
-0.3064,0.2600,0.9581,-27.5269,-5.2490,59.6313,0,0,0,1
-0.1537,0.4878,1.0922,-21.5454,-10.6812,26.1230,0,0,0,1
-0.2512,0.1320,0.9761,1.5259,58.7769,24.2310,0,0,0,1
-0.1239,-0.0444,0.8849,-6.1646,-0.9155,-38.5132,0,0,1,0
-0.0095,0.1965,0.9696,7.5073,-6.3477,-23.3765,0,0,0,1
-0.0598,0.0282,0.9224,-7.5684,0.4883,-0.9766,0,1,0,0
-0.1072,0.0809,0.9800,3.6011,-9.0942,-9.5825,0,0,0,1
-0.1161,0.0452,1.0126,-2.0752,-5.4932,-2.7466,0,0,0,1
-0.1444,0.1257,0.9438,-1.8311,-6.5918,-2.4414,0,0,0,1
-0.1378,0.0679,0.9939,3.7842,-3.9062,-6.5918,0,0,0,1
-0.1069,0.0303,1.1042,-12.7563,-14.3433,-11.5356,0,0,0,1
-0.1482,0.0714,1.1295,-1.4038,2.1362,-3.1128,0,0,0,1
-0.1051,0.0851,1.2211,-0.4883,39.9170,-0.6104,0,0,0,1
-0.0248,0.0983,1.1967,1.7700,47.9736,-2.1973,0,0,0,1
0.0739,0.0896,1.1318,-6.7749,55.9692,-3.1128,0,1,0,0
0.0930,0.1219,1.0050,-18.3105,49.7437,-3.4180,0,1,0,0
0.0975,0.1741,0.8300,-32.8369,40.4053,-11.3525,0,1,0,0
0.1960,0.1984,0.7178,-1.7090,59.3872,14.2212,0,1,0,0
0.2952,0.0869,0.6013,29.4189,95.2759,98.2056,0,1,0,0
0.1311,0.1180,0.6467,10.6201,4.1504,3.6621,0,1,0,0
0.1779,0.0696,0.7716,21.3623,-20.5688,-13.7939,0,1,0,0
0.2992,0.0446,0.8469,8.9722,-36.1328,-27.2827,0,1,0,0
0.2622,0.0310,0.9457,-0.4883,-31.9824,-16.2354,0,1,0,0
0.1943,0.0786,0.8905,-9.0942,-34.6680,-14.4653,0,1,0,0
0.1018,0.0649,0.8802,-5.3101,-28.7476,-8.9111,0,1,0,0
0.1121,0.0580,0.9414,-10.1318,-49.4385,-17.4561,0,1,0,0
0.0480,0.1327,0.9426,-11.1084,-21.7896,-2.5024,0,1,0,0
0.0535,0.1041,0.9523,-1.7090,-13.8550,-1.2207,0,1,0,0
0.0959,0.1060,0.9501,-2.1362,-38.6963,-17.7002,0,1,0,0
-0.0070,0.2076,0.8910,1.2207,-54.8706,-17.8223,0,0,0,1
-0.0797,0.0775,0.9270,19.1040,-38.4521,1.5869,0,0,0,1
-0.2284,-0.0005,1.0223,-3.7231,-56.2134,-2.5635,1,0,0,0
-0.1937,-0.0424,1.0214,-18.1885,-54.4434,-8.3618,1,0,0,0
-0.2424,0.3053,1.0712,-21.9116,-66.3452,7.4463,0,0,0,1
-0.5525,0.0280,1.2942,4.6387,57.9834,2.5024,1,0,0,0
-0.4487,-0.0884,0.7699,-12.5122,8.9111,-14.8926,1,0,0,0
-0.1016,0.2119,0.8243,-1.2817,-7.0801,-7.9956,0,0,0,1
-0.1335,0.1091,0.9971,16.2354,11.0474,0.3052,0,0,0,1
-0.4915,0.1847,0.7893,-20.2026,-21.4844,10.1929,1,0,0,0
-0.3829,0.2179,0.9419,6.3477,-5.2490,-19.2261,1,0,0,0
-0.2791,0.0751,0.9178,-4.5776,-12.0850,-24.1699,1,0,0,0
-0.3088,0.1162,0.9340,4.8218,5.1880,1.1597,1,0,0,0
-0.3201,0.0824,0.9786,-1.2817,0.5493,3.0518,1,0,0,0
-0.3376,0.1345,0.9299,-2.5024,1.2817,1.5259,1,0,0,0
-0.3403,0.1470,0.9229,-0.7935,7.4463,4.4556,1,0,0,0
-0.3058,0.1572,0.8859,1.5869,6.2866,2.8687,0,0,0,1
-0.3018,0.1495,0.8944,-2.9907,-1.8921,0.1831,0,0,0,1
-0.3129,0.1248,0.9381,-0.3052,0.3662,3.4790,1,0,0,0
-0.3330,0.1290,0.9396,-1.7090,0.4272,-0.7935,1,0,0,0
-0.3070,0.1273,0.9186,-0.1221,5.7983,3.7842,1,0,0,0
-0.2955,0.1348,0.9143,-2.3193,3.7842,3.3569,1,0,0,0
-0.2751,0.1218,0.9441,1.6479,7.1411,6.8359,0,0,0,1
-0.2716,0.1343,0.9143,2.4414,12.5122,10.6812,0,0,0,1
-0.2826,0.1038,0.9578,0.6104,13.9771,10.3760,1,0,0,0
-0.2559,0.0985,0.9039,-0.1831,9.9487,-0.3662,0,0,0,1
-0.2324,0.0948,0.9530,2.5024,11.8408,6.1646,0,0,0,1
-0.2257,0.1025,0.9379,1.2817,8.4229,6.4697,0,0,0,1
-0.2091,0.0854,0.9568,-0.3052,5.7373,-0.4272,0,0,0,1
-0.1957,0.0951,0.9415,1.8311,2.1362,-1.7700,0,0,0,1
-0.2113,0.0944,0.9453,-0.1831,0.7935,-0.1831,0,0,0,1
-0.1996,0.0820,1.0028,1.4648,0.6714,-0.2441,0,0,0,1
-0.2408,0.0658,1.0906,15.6860,16.0522,-2.2583,1,0,0,0
-0.0040,-0.2213,1.2664,64.8193,82.4585,0.1831,0,0,1,0
0.2896,-0.2070,1.4049,18.2495,71.8384,34.3018,0,1,0,0
0.0664,0.0342,1.0128,-45.9595,33.4473,33.9355,0,1,0,0
-0.0443,0.1256,0.9452,-48.0347,18.4326,27.2217,0,0,0,1
-0.0685,0.1843,0.8173,-42.7856,25.0854,9.0942,0,0,0,1
0.1039,0.1500,0.7159,-11.7798,47.7295,40.6494,0,1,0,0
0.0179,0.1803,0.6428,-0.7324,25.3906,12.9395,0,0,0,1
0.1501,0.1106,0.7755,3.9673,27.3438,16.6016,0,1,0,0
0.2423,0.1304,0.8058,-2.5024,5.5542,1.7700,0,1,0,0
0.2666,0.1383,0.8445,3.1128,-8.3008,-10.0098,0,1,0,0
0.2495,0.1572,0.8381,5.4321,-17.3950,-8.8501,0,1,0,0
0.1787,0.0894,0.9348,17.2119,-7.0801,-6.3477,0,1,0,0
0.2133,0.0278,0.9983,7.9346,-13.9160,-13.4888,0,1,0,0
0.1692,0.0942,0.9061,-8.0566,-12.0239,-7.0190,0,1,0,0
0.1914,0.0529,0.8870,1.0376,-9.3994,14.0381,0,1,0,0
0.0598,0.1587,0.7057,-10.6201,-34.5459,5.7983,0,1,0,0
-0.0929,0.1339,0.7721,6.0425,-15.3809,28.3813,0,0,0,1
0.2253,0.0293,1.0701,6.1646,-59.7534,-29.6021,0,1,0,0
0.0962,0.0623,1.1058,-3.6621,-62.8052,3.9062,0,1,0,0
-0.0314,0.0516,1.1285,-8.7280,-73.3032,-3.4180,0,1,0,0
-0.1628,0.3167,1.2006,28.8696,-44.1895,-8.3618,0,0,0,1
-0.0790,-0.2123,1.3417,-10.1318,18.2495,15.9912,0,0,1,0
-0.4701,0.2040,0.7446,-24.1089,-7.3853,5.5542,1,0,0,0
-0.1558,0.1362,1.0052,18.3716,8.4229,-23.3154,0,0,0,1
-0.1588,0.1000,0.8829,-10.3149,-4.6997,-3.6011,0,0,0,1
-0.1733,0.0702,0.9465,7.6904,0.3052,-10.9863,0,0,0,1
-0.1807,0.0742,0.9385,-15.4419,-5.7983,5.4932,0,0,0,1
-0.2067,0.0984,0.9517,0.4883,2.5635,1.8921,0,0,0,1
-0.1713,0.1395,0.9668,0.1831,3.2349,6.1646,0,0,0,1
-0.2139,0.1718,1.0165,-8.5449,3.6011,10.9253,0,0,0,1
-0.1984,0.2887,0.8849,-9.0332,-4.8828,-16.1743,0,0,0,1
-0.2147,0.3350,0.9514,12.6343,9.6436,-0.9155,0,0,0,1
-0.2463,0.2166,0.8320,41.5649,20.0195,-40.8936,0,0,0,1
0.0192,-0.1475,0.9481,53.8940,18.1885,-43.4570,0,1,0,0
0.1399,-0.2950,0.7378,46.2646,53.6499,12.3901,0,1,0,0
-0.0945,-0.4768,1.1776,45.9595,-5.0049,-24.9023,0,0,1,0
-0.2845,-0.2568,0.9886,2.3804,-30.6396,-23.3765,0,0,1,0
-0.1907,-0.2723,1.0374,4.5776,9.5825,-8.7280,0,0,1,0
-0.0541,-0.2872,0.9764,-1.4648,8.3008,-15.0757,0,0,1,0
-0.0857,-0.2837,0.9193,9.5215,13.7329,-8.3618,0,0,1,0
-0.0813,-0.3287,0.9446,-7.3242,-2.9907,-10.3760,0,0,1,0
-0.0671,-0.2770,0.9189,-0.9766,-5.8594,-3.5400,0,0,1,0
0.0900,-0.3734,1.0592,-2.9297,-14.4043,17.7002,0,0,1,0
-0.1591,-0.2345,0.9529,-61.4624,-30.8228,48.7671,0,0,1,0
-0.1449,-0.0089,0.9215,-77.0264,-40.8325,46.8140,0,0,0,1
-0.2520,0.3403,0.8965,-44.7998,-25.3296,44.7998,0,0,0,1
-0.3507,0.2887,1.0354,4.6387,12.3291,17.9443,0,0,0,1
-0.3315,0.1440,0.8163,-26.1841,1.5259,13.4277,1,0,0,0
-0.2672,0.1459,0.8458,9.2773,7.0801,-11.7187,0,0,0,1
-0.1566,0.0535,0.9484,8.7891,2.6855,-15.3809,0,0,0,1
-0.1569,-0.0092,1.0188,5.6763,-1.7700,-10.5591,1,0,0,0
-0.2349,-0.0013,0.9714,9.3994,8.6670,-3.4790,1,0,0,0
-0.1335,0.0071,0.9785,-1.4648,8.8501,-7.3853,0,0,0,1
-0.0811,0.0046,0.9658,2.1362,5.6763,-2.0142,0,1,0,0
-0.1390,0.0085,0.9900,-6.2866,-4.0283,7.3853,0,0,0,1
-0.1920,0.0361,0.9838,-7.8125,-1.8921,4.8218,0,0,0,1
-0.1580,0.0419,0.9911,-16.2964,4.6997,14.2822,0,0,0,1
-0.1752,0.0734,0.9086,-7.5684,2.1973,10.3760,0,0,0,1
-0.1831,0.0497,0.9739,1.7700,3.6621,1.5259,0,0,0,1
-0.1252,0.0464,0.9681,0.6714,4.8218,2.5635,0,0,0,1
-0.1179,0.0491,0.9775,-3.3569,5.1270,10.9863,0,0,0,1
-0.1512,0.0631,0.9403,-4.0894,3.7231,14.4043,0,0,0,1
-0.1219,-0.0265,1.0006,1.5869,4.3335,10.7422,0,1,0,0
0.0421,-0.2490,1.1282,-3.7842,17.0288,34.4238,0,0,1,0
0.1223,-0.2544,1.0255,-25.5737,18.3716,81.2378,0,1,0,0
-0.0012,-0.1680,1.0062,-36.0107,15.3809,116.7603,0,0,1,0
-0.2184,0.0007,0.8425,-47.9126,5.3101,117.0654,1,0,0,0
-0.4369,0.1730,0.8978,-38.2690,7.6294,109.4971,1,0,0,0
-0.3585,0.3242,0.8785,-43.7622,-3.6621,72.3267,0,0,0,1
-0.3582,0.4196,0.8643,-24.4141,6.2256,55.0537,0,0,0,1
-0.3805,0.4604,0.8091,-21.4844,-1.0376,24.2920,0,0,0,1
-0.3582,0.4313,0.8455,15.3809,2.6245,-10.1318,0,0,0,1
-0.2999,0.3412,0.8977,7.8125,-4.0283,-35.8276,0,0,0,1
-0.2675,0.3121,0.9000,18.7988,2.0752,-47.3633,0,0,0,1
-0.2750,0.2534,0.9197,20.6299,3.3569,-67.6270,0,0,0,1
-0.2296,0.2250,0.9261,13.8550,-1.0376,-69.2749,0,0,0,1
-0.1401,0.2203,0.9492,9.8877,-5.4321,-71.8994,0,0,0,1
-0.0848,0.0686,0.9166,27.7710,1.8311,-90.3931,0,0,0,1
-0.0039,0.0511,0.9036,9.3994,-23.7427,-84.1675,0,1,0,0
0.0688,0.0081,0.9855,3.9062,-19.1040,-60.2417,0,1,0,0
0.0845,-0.0605,1.1002,25.1465,0.6104,-49.0723,0,1,0,0
-0.1980,0.1265,0.9423,-1.4038,-4.9438,-23.9868,0,0,0,1
0.0671,0.0851,0.9476,-4.3945,-9.5825,-52.6733,0,1,0,0
-0.0114,0.1469,0.8414,-8.5449,-43.0298,-58.8379,0,0,0,1
-0.1187,0.1074,0.9674,15.2588,-30.7617,-36.4380,0,0,0,1
-0.1345,-0.0134,1.0612,10.1929,-10.4370,-17.8833,0,0,0,1
-0.1637,0.0095,1.0680,19.0430,5.1270,-10.0708,0,0,0,1
-0.0317,0.0140,0.9540,-5.6152,4.3335,0.3052,0,1,0,0
-0.1074,0.0613,0.9718,5.8594,1.2207,1.2207,0,0,0,1
-0.1404,0.0624,0.9578,3.1128,2.1973,3.5400,0,0,0,1
-0.0897,0.0511,0.9906,5.1880,2.9907,-6.1035,0,0,0,1
-0.0990,0.0187,0.9628,-0.7324,-14.8315,1.8311,0,0,0,1
-0.0432,-0.0494,1.0193,-1.1597,-2.1973,7.1411,0,1,0,0
-0.0278,-0.0908,1.0277,-7.2632,-4.2725,12.8784,0,1,0,0
-0.0472,-0.1213,1.0253,-7.3242,6.0425,35.0952,0,0,1,0
-0.0491,-0.1885,0.9980,8.6670,15.8691,49.6216,0,0,1,0
0.0291,-0.2733,1.0577,-24.1089,8.6060,91.3696,0,0,1,0
-0.1328,-0.1323,0.9752,-45.7153,7.8125,118.5913,0,0,1,0
-0.1735,-0.0194,0.9110,-56.1523,12.0850,139.7095,1,0,0,0
-0.3185,0.1661,0.8436,-59.3262,5.5542,129.7607,0,0,0,1
-0.2936,0.3927,0.7223,-48.0957,-1.7700,108.0933,0,0,0,1
-0.5066,0.4526,0.8381,-4.8828,8.5449,90.6982,0,0,0,1
-0.5925,0.4805,0.9119,-13.9160,-3.2959,29.9072,0,0,0,1
-0.4574,0.4482,0.8402,4.4556,-10.5591,-32.6538,0,0,0,1
-0.3337,0.3196,0.8582,12.0239,-13.4888,-58.4106,0,0,0,1
-0.2397,0.2689,0.9174,16.5405,-19.2261,-58.1665,0,0,0,1
-0.3306,0.2605,0.9104,17.7002,-15.6860,-60.8521,0,0,0,1
-0.2568,0.2081,0.9257,27.2827,2.7466,-68.7866,0,0,0,1
-0.2959,0.2191,0.8542,22.2778,0.0610,-60.7910,0,0,0,1
-0.1847,0.2087,0.9423,9.7046,-15.1978,-57.6172,0,0,0,1
-0.1448,0.1165,0.9221,35.7666,-1.0376,-71.4722,0,0,0,1
-0.2180,0.0831,0.8395,37.5977,-4.3335,-74.5850,0,0,0,1
-0.1609,0.0017,0.9346,19.0430,-26.2451,-69.8853,1,0,0,0
-0.0615,-0.1301,1.0607,33.2031,-5.9814,-61.3403,0,0,1,0
-0.0751,-0.1746,1.0570,29.6021,6.2866,-39.8560,0,0,1,0
-0.0282,-0.1368,1.0389,9.3384,6.6528,-14.9536,0,0,1,0
-0.0131,-0.0814,0.9902,-4.4556,1.4648,-2.3193,0,1,0,0
-0.1118,0.0281,0.9554,-4.1504,-3.2959,1.8921,0,0,0,1
-0.1382,0.0388,0.9478,2.5635,-3.9673,-3.6011,0,0,0,1
-0.0695,-0.0183,1.0305,-6.8359,-4.1504,-3.5400,0,1,0,0
0.0177,0.0001,1.0198,-5.0659,-10.7422,-14.7705,0,1,0,0
0.0024,0.1112,0.9335,4.7607,-14.2822,-14.6484,0,1,0,0
-0.0449,-0.0626,1.0804,52.6123,43.1519,-2.7466,0,1,0,0
-0.0656,-0.0201,0.9594,10.0708,-28.2593,-7.1411,0,1,0,0
-0.0471,-0.0342,0.8793,23.9868,-22.2168,5.4321,0,1,0,0
-0.1823,-0.1490,0.9979,15.9912,-3.5400,11.9629,0,0,1,0
-0.2971,-0.1455,0.8792,-9.3384,-21.4233,12.2070,1,0,0,0
-0.3938,-0.1772,0.9404,23.8037,-24.6582,-0.7324,1,0,0,0
-0.4757,-0.2097,0.9594,14.8926,-6.9580,7.8125,1,0,0,0
-0.4606,-0.2220,0.9609,-2.1362,-10.3760,-4.9438,1,0,0,0
-0.4524,-0.2186,0.9957,-6.0425,7.7515,-13.3057,1,0,0,0
-0.3164,-0.1594,0.9182,-8.9111,8.9722,-24.5972,1,0,0,0
-0.3373,-0.1636,0.9548,-7.6904,14.0381,-20.4468,1,0,0,0
-0.2875,-0.1256,0.8970,-14.1602,15.0757,-24.6582,1,0,0,0
-0.3387,-0.0919,0.8795,-9.0942,18.1274,-20.6909,1,0,0,0
-0.2543,-0.0635,0.9232,-3.1128,20.0195,-48.3398,1,0,0,0
0.0056,-0.0597,0.9436,-19.5923,30.2124,-32.3486,0,1,0,0
0.0707,-0.0411,0.9120,-9.5825,22.3389,-10.9863,0,1,0,0
0.1110,-0.0801,0.9418,-20.7520,5.6152,-7.6904,0,1,0,0
0.0997,-0.1227,0.9640,-8.7280,-7.6904,11.7798,0,1,0,0
0.0399,0.2328,0.9703,-28.9917,-39.6118,29.9072,0,0,0,1
-0.2589,0.0370,1.2134,49.2554,48.6450,29.3579,1,0,0,0
-0.1603,-0.1085,0.8915,-28.9917,-22.3999,-8.3618,0,0,1,0
-0.0746,0.0559,0.9478,13.3667,-0.1831,1.8921,0,0,0,1
-0.0851,-0.1063,1.1196,-3.6011,-0.3052,4.4556,0,0,1,0
-0.1819,0.0602,0.9021,-5.1880,-3.7842,2.3804,0,0,0,1
-0.0929,-0.0085,1.0044,-4.7607,-0.1831,1.5259,0,1,0,0
-0.2020,0.0592,0.9575,-1.4038,-0.0610,4.2114,0,0,0,1
-0.2866,0.0430,1.0586,-4.3945,4.6387,4.8218,1,0,0,0
-0.2072,0.0114,1.0111,2.1362,-1.7700,6.7139,1,0,0,0
-0.3035,0.0011,1.0232,-6.5918,14.8926,-3.7842,1,0,0,0
-0.1362,0.0209,0.9639,-28.8086,5.9204,-40.7104,0,0,0,1
-0.0446,0.0841,0.8287,6.1646,37.8418,-21.1792,0,0,0,1
0.0688,-0.0538,1.0035,13.9160,50.0488,-8.2397,0,1,0,0
0.2085,-0.0063,0.9520,2.8687,31.1890,-4.8218,0,1,0,0
0.2343,0.0348,0.8540,0.4883,30.0903,8.6670,0,1,0,0
0.2717,-0.0254,0.9596,1.4648,-2.6855,6.2866,0,1,0,0
0.1202,0.0443,0.9576,-9.6436,-16.1133,3.5400,0,1,0,0
0.1547,0.0154,0.9589,-0.6714,-16.6626,5.3711,0,1,0,0
0.1545,-0.0199,1.0018,-7.6904,-22.8882,13.1836,0,1,0,0
0.0997,0.0162,0.9487,-18.0054,-36.8652,20.9351,0,1,0,0
0.0416,0.0337,0.9579,-4.4556,-0.7324,41.3818,0,1,0,0
0.1528,0.0608,0.8671,-7.5073,-35.4004,30.7617,0,1,0,0
-0.1193,0.0900,0.9462,-10.8032,-45.1660,53.5889,0,0,0,1
-0.4557,0.1262,0.9905,-6.5308,-35.6445,32.6538,1,0,0,0
-0.4810,0.0763,1.0129,1.4648,-39.8560,-9.3384,1,0,0,0
-0.5144,0.0562,0.9630,8.6060,1.3428,6.6528,1,0,0,0
-0.3049,0.0485,0.9182,-0.1831,1.8311,-14.3433,1,0,0,0
-0.1909,0.0636,0.9257,5.9204,5.7983,-6.1646,0,0,0,1
-0.2255,0.0564,0.9425,6.9580,-0.7324,-3.2959,1,0,0,0
-0.2823,0.0326,0.9775,4.7607,-5.8594,-4.5166,1,0,0,0
-0.3812,0.0548,0.9498,3.2959,-1.4648,-6.3477,1,0,0,0
-0.4259,0.0378,0.9967,5.1880,9.2773,-12.8784,1,0,0,0
-0.3141,0.0203,1.0183,6.3477,18.7378,-28.6865,1,0,0,0
-0.1802,0.0070,0.9716,7.6294,24.8413,-32.3486,1,0,0,0
-0.1859,0.0492,0.8529,3.7231,2.9907,-26.7944,0,0,0,1
-0.0464,0.0255,0.9197,28.7476,-4.9438,-38.5132,0,1,0,0
-0.1022,-0.0190,0.9819,24.8413,1.2207,-16.9067,0,1,0,0
-0.1437,-0.0712,0.9812,23.0713,4.0283,-20.6909,0,0,1,0
-0.0923,-0.0804,0.9631,16.8457,6.4087,-12.5122,0,0,1,0
-0.0370,-0.1398,1.0039,13.3057,12.6343,-3.7231,0,0,1,0
-0.0272,-0.1350,0.9827,0.4883,-2.5635,-5.0659,0,0,1,0
-0.1749,-0.0784,0.9490,-4.3335,-6.1646,1.7700,0,0,1,0
-0.1766,-0.1000,0.9694,-2.5024,0.3662,0.4883,0,0,1,0
-0.1383,-0.1082,0.9604,-2.5024,-0.1221,0.4883,0,0,1,0
-0.1266,-0.0990,0.9673,-3.6011,-1.2817,1.5259,0,0,1,0
-0.1453,-0.0802,0.9518,-3.1128,-4.3335,2.4414,0,0,1,0
-0.0574,-0.0923,0.9689,-7.0801,-5.4932,-0.7935,0,1,0,0
-0.0547,-0.1199,0.9614,-14.7095,-22.3389,1.3428,0,0,1,0
-0.1532,-0.1082,1.0198,-24.9634,-19.5313,7.9956,0,0,1,0
-0.1680,-0.0593,0.9590,-39.0015,-10.9863,22.3999,0,0,1,0
-0.0784,0.0127,0.9001,-27.2827,9.5215,46.3257,0,1,0,0
-0.1888,0.0170,0.9305,-0.9155,14.5874,75.2563,1,0,0,0
-0.3868,0.0530,0.8961,-8.3618,-10.9253,46.5088,1,0,0,0
-0.5631,-0.0176,0.9468,20.3247,-11.9629,8.9111,1,0,0,0
-0.3842,-0.0977,1.0697,6.9580,6.4697,-14.3433,1,0,0,0
-0.1926,-0.0916,0.9862,-0.2441,21.8506,-3.8452,0,0,1,0
-0.1377,-0.0177,0.8949,-0.5493,7.5073,-2.4414,0,0,0,1
-0.2000,-0.0477,0.9790,-4.0283,11.9019,4.6997,1,0,0,0
-0.2052,-0.0557,0.9957,-2.6245,4.2725,-3.1738,1,0,0,0
-0.1398,-0.0635,0.9910,-3.6011,10.0098,-0.4272,0,0,1,0
-0.0964,-0.0669,0.9657,5.1270,6.4087,0.4272,0,0,1,0
-0.1050,-0.1005,1.0161,3.4180,5.9814,1.4648,0,0,1,0
-0.0205,-0.1055,1.0289,-5.7373,-9.2163,-16.2964,0,1,0,0
-0.1617,-0.0186,0.9344,-2.5635,-5.3711,-12.9395,1,0,0,0
-0.1112,-0.0981,1.0814,4.2114,3.9673,3.9062,0,0,1,0
-0.0198,-0.0164,0.9108,-22.7051,-22.4609,-3.8452,0,1,0,0
-0.0142,0.0337,0.8776,-32.8979,-38.6353,-3.0518,0,1,0,0
-0.3110,0.1063,0.7970,5.0049,-9.5825,18.2495,1,0,0,0
-0.3562,-0.0281,1.0046,18.8599,-3.2959,33.0811,1,0,0,0
-0.2615,-0.0640,0.9149,14.5264,-5.8594,17.3340,1,0,0,0
-0.3647,-0.1165,0.8680,29.0527,-18.5547,11.7187,1,0,0,0
-0.5612,-0.1138,0.9268,-2.1362,-10.9253,26.1841,1,0,0,0
-0.4651,-0.1016,0.9425,-1.6479,-8.4839,-8.2397,1,0,0,0
-0.3783,-0.0874,0.9415,-10.0708,-2.9297,-5.7983,1,0,0,0
-0.4049,-0.1284,0.9819,-9.7046,3.1738,-7.4463,1,0,0,0
-0.3848,-0.0469,0.8999,-28.1372,3.5400,-4.1504,1,0,0,0
-0.3140,-0.0441,0.9108,1.8311,36.2549,10.4370,1,0,0,0
-0.3090,-0.1165,1.0413,-12.7563,22.0337,-8.1177,1,0,0,0
-0.2661,-0.0408,0.9379,-15.6860,11.4136,-29.2358,1,0,0,0
-0.1986,-0.0380,0.9489,-8.9111,18.0054,-14.3433,1,0,0,0
-0.0720,-0.0516,0.9958,0.9155,20.5688,-9.0332,0,1,0,0
-0.1467,0.0402,0.8752,-18.3105,11.1694,2.7466,0,0,0,1
-0.0623,-0.0352,0.9425,-9.5215,13.1226,-9.8877,0,1,0,0
0.0325,-0.1075,0.9996,-20.8130,-15.6860,-23.0103,0,1,0,0
-0.0063,0.2213,0.9177,-23.8037,-30.9448,6.3477,0,0,0,1
-0.1250,0.0509,1.2139,16.2354,36.4990,12.9395,0,0,0,1
-0.1996,0.0833,0.7761,-39.0015,-19.2261,4.3335,0,0,0,1
-0.1268,0.1104,0.9564,20.6299,5.0049,3.2349,0,0,0,1
-0.1382,0.0144,1.0029,-9.5215,-5.6763,7.7515,0,0,0,1
-0.2040,0.0946,0.9349,0.4883,-2.6855,7.5073,0,0,0,1
-0.1482,0.0637,0.9941,-4.2114,6.7749,17.2729,0,0,0,1
-0.1188,0.0745,0.9298,1.3428,-2.1362,7.9956,0,0,0,1
-0.1898,0.0681,0.9832,-0.7935,-4.6387,5.9814,0,0,0,1
-0.1826,0.0640,0.9768,-3.2959,-5.3711,-1.8921,0,0,0,1
-0.1942,0.0808,0.9576,0.7324,-0.5493,4.3335,0,0,0,1
-0.1554,0.0774,0.9668,-1.2207,-10.4980,-3.6011,0,0,0,1
-0.1995,0.1030,0.9810,1.0986,-6.4087,-1.8311,0,0,0,1
-0.2762,0.1859,0.8981,-1.0986,-9.7656,-6.6528,0,0,0,1
-0.3245,0.2067,0.8643,22.4609,5.5542,-2.0142,0,0,0,1
-0.1781,0.0582,0.9883,39.1235,16.6626,-33.5693,0,0,0,1
-0.1775,0.1052,0.8737,43.2739,18.6768,-33.3862,0,0,0,1
-0.0518,-0.1292,1.0403,74.5850,41.9922,-52.1240,0,0,1,0
-0.0248,-0.2584,0.9274,68.6646,22.3389,-49.4995,0,0,1,0
-0.1918,-0.4113,0.9031,56.7017,18.4326,-26.0010,0,0,1,0
-0.1750,-0.5383,0.9259,35.4004,13.0005,-16.6016,0,0,1,0
-0.0557,-0.6133,0.9596,5.3711,12.0239,-15.5640,0,0,1,0
0.0005,-0.5469,0.9104,-12.6343,-4.5166,-6.7139,0,0,1,0
-0.0065,-0.4775,0.9387,-17.8223,-6.0425,8.2397,0,0,1,0
-0.0410,-0.4578,0.9664,-28.3813,-14.9536,13.3057,0,0,1,0
-0.1219,-0.3350,0.9030,-46.3257,-24.1089,13.4277,0,0,1,0
-0.1208,-0.2939,0.9340,-52.4292,-12.0850,23.4375,0,0,1,0
-0.1353,-0.2506,0.9741,-53.8940,-3.2349,33.9355,0,0,1,0
-0.1429,-0.1383,0.9504,-53.1006,-7.6294,39.3677,0,0,1,0
-0.1875,0.0034,0.8726,-56.8237,-5.2490,45.5322,1,0,0,0
-0.2186,0.2189,0.7889,-32.5928,-16.6016,29.1138,0,0,0,1
-0.1553,0.2175,0.9551,-29.3579,-14.4043,35.3394,0,0,0,1
-0.3325,0.4574,1.0094,8.8501,-3.2349,15.6250,0,0,0,1
-0.1219,-0.0085,0.9990,9.4604,30.7007,-7.6294,0,1,0,0
-0.1656,0.0739,0.8871,3.4180,-4.9438,-12.5122,0,0,0,1
-0.1523,-0.0034,1.0676,22.5220,13.3667,-7.3853,0,0,0,1
-0.1355,0.0125,0.9432,-0.9766,-4.6387,-7.0190,0,0,0,1
-0.1014,-0.0101,1.0122,6.8359,1.1597,-8.5449,0,1,0,0
-0.1702,0.0262,0.9297,-3.8452,-0.0610,2.9297,0,0,0,1
-0.1436,0.0033,0.9586,1.6479,-2.3804,-7.5684,0,0,0,1
-0.1151,-0.0427,0.9807,2.9297,4.0894,-4.3945,0,1,0,0
-0.0776,-0.0984,0.9773,6.0425,5.5542,0.8545,0,0,1,0
-0.0182,-0.2157,1.0835,1.0376,11.9019,30.7617,0,0,1,0
-0.0527,-0.1583,1.0201,-23.6816,3.2959,52.2461,0,0,1,0
-0.0742,-0.1056,1.0034,-31.5552,6.1646,79.6509,0,0,1,0
-0.1525,-0.0811,0.9424,-39.1235,10.7422,91.1865,0,0,1,0
-0.1278,-0.0011,0.8722,-35.4004,6.1035,80.4443,0,0,0,1
-0.1606,0.0442,0.9177,-14.7095,11.2305,96.4355,0,0,0,1
-0.2423,0.1143,0.9783,-18.6768,1.7090,90.4541,0,0,0,1
-0.4210,0.3340,0.9474,-31.8604,-8.4229,73.3643,0,0,0,1
-0.4687,0.4551,0.8627,-22.8271,-2.0142,37.9639,0,0,0,1
-0.3837,0.4586,0.8254,-8.0566,-10.3760,-21.4233,0,0,0,1
-0.2534,0.2867,0.8756,8.7891,-6.5308,-44.3726,0,0,0,1
-0.1576,0.1920,0.9279,15.6250,-8.5449,-41.7480,0,0,0,1
-0.1787,0.0569,1.0409,21.7285,3.4180,-38.9404,0,0,0,1
-0.2256,0.1582,0.9525,-2.8687,-6.2256,-36.3159,0,0,0,1
-0.1740,0.1852,0.9622,5.6152,4.3945,-32.7148,0,0,0,1
-0.2576,0.2679,0.8038,4.9438,-6.6528,-50.1709,0,0,0,1
-0.0665,0.1110,0.9617,23.7427,-2.0752,-62.3169,0,0,0,1
-0.1508,0.1096,0.9474,21.3013,-7.8735,-53.1006,0,0,0,1
-0.1399,0.0588,0.9604,18.0054,-5.3101,-52.3071,0,0,0,1
-0.0834,-0.0125,0.9911,20.7520,-5.4321,-50.8423,0,1,0,0
-0.1145,-0.0054,0.9813,17.1509,-11.1084,-42.9077,0,1,0,0
-0.1848,0.0265,0.9763,8.3008,-12.0239,-32.2876,0,0,0,1
-0.1283,-0.0002,0.9844,13.2446,-1.5259,-28.8086,0,0,0,1
-0.1266,-0.0322,0.9816,15.6860,-4.0283,-29.3579,0,0,1,0
-0.1234,-0.0454,0.9646,2.6245,-5.9204,-17.0288,0,0,1,0
-0.1337,-0.0593,1.0074,-2.0142,-2.3804,-1.4648,0,0,1,0
-0.1353,-0.0350,1.0231,-3.4790,-0.9155,-1.5259,0,0,1,0
-0.1404,0.0320,0.9584,-5.9814,-0.9766,2.8687,0,0,0,1
-0.1693,0.0648,0.9390,-3.4790,-2.8687,0.7935,0,0,0,1
-0.1426,0.0082,0.9829,-0.2441,-0.5493,1.2817,0,0,0,1
-0.1610,-0.0044,1.0009,-3.4180,-1.6479,3.7842,1,0,0,0
-0.1941,0.0519,0.9672,-7.3853,-0.6714,5.1880,0,0,0,1
-0.1641,0.0590,0.9601,-2.5024,0.0000,-0.4883,0,0,0,1
-0.1681,0.0521,0.9540,-0.0610,0.9766,-0.7324,0,0,0,1
-0.1460,0.0151,0.9734,0.3052,-1.8921,-3.2349,0,0,0,1
-0.1625,-0.0100,1.0002,-2.2583,-0.5493,2.3193,1,0,0,0
-0.1567,0.0343,0.9667,-5.1270,-2.5635,1.6479,0,0,0,1
-0.1810,0.0687,0.9504,-3.2959,-2.6855,2.1362,0,0,0,1
-0.1968,0.0822,0.9624,-5.3101,-4.1504,3.1738,0,0,0,1
-0.1764,0.0417,0.9661,-2.6245,-2.3193,-1.4648,0,0,0,1
-0.1725,0.0278,0.9818,-1.8311,0.4883,0.6714,0,0,0,1
-0.1841,0.0481,0.9546,-5.4321,0.3662,1.5259,0,0,0,1
-0.1720,0.0537,0.9646,-1.6479,-0.4272,-0.9155,0,0,0,1
-0.1790,0.0607,0.9546,-2.3804,-0.3662,0.7935,0,0,0,1
-0.1868,0.0632,0.9655,-1.4038,-2.7466,-1.8921,0,0,0,1
-0.1768,0.0425,0.9761,-0.6104,-1.4038,-1.2817,0,0,0,1
-0.1747,0.0438,0.9778,-3.9062,-3.1128,1.4038,0,0,0,1
-0.1556,0.0430,0.9923,-2.0752,-1.8311,0.5493,0,0,0,1
-0.1835,0.0416,1.0940,-1.9531,2.7466,0.7324,0,0,0,1
-0.0923,-0.0359,1.2550,11.7187,26.0010,0.6714,0,1,0,0
-0.0127,-0.0503,1.2838,15.9302,83.3740,37.8418,0,1,0,0
0.1338,-0.0234,1.1385,-2.6855,79.4678,38.0859,0,1,0,0
0.1243,0.0670,0.9261,-29.5410,41.2598,35.4004,0,1,0,0
0.0721,0.0659,0.9578,-43.0908,12.2070,10.9253,0,1,0,0
0.1069,0.1840,0.6749,-23.8037,4.8218,14.9536,0,1,0,0
-0.1093,0.2181,0.6805,-18.3105,7.2021,36.4380,0,0,0,1
-0.0322,0.2162,0.7257,-9.0942,0.6104,-1.3428,0,0,0,1
0.0673,0.2095,0.8223,4.9438,1.4038,-2.0752,0,0,0,1
0.1301,0.1819,0.8365,16.7236,-2.7466,-3.2959,0,1,0,0
0.1243,0.1121,0.8783,20.9351,-9.4604,-6.3477,0,1,0,0
0.1290,0.1406,0.8918,11.1694,-24.8413,-17.7002,0,1,0,0
0.0851,0.0317,1.0635,15.8081,-18.9209,-16.9067,0,1,0,0
0.0455,0.0579,1.0189,-7.4463,-24.7803,-14.0381,0,1,0,0
-0.0914,0.0994,0.9475,-10.8643,-14.2822,-6.7139,0,0,0,1
-0.1115,0.1403,0.9574,-15.1978,-15.8081,-27.9541,0,0,0,1
0.0012,0.1102,0.9319,7.6294,-5.1270,-20.7520,0,1,0,0
0.0334,0.1244,0.9271,6.2866,-5.5542,-2.0142,0,1,0,0
-0.0448,0.0358,0.9042,0.8545,-25.4517,-14.7095,0,1,0,0
-0.1239,0.2333,0.7593,-20.8130,-56.8848,-14.7095,0,0,0,1
-0.0065,0.0458,1.0121,16.3574,-41.1987,-13.5498,0,1,0,0
-0.0846,0.1014,0.9905,-15.5640,-67.1997,11.3525,0,0,0,1
-0.6007,0.1357,1.6156,66.3452,53.7720,30.8838,1,0,0,0
-0.4637,-0.1957,0.8236,-5.9204,-8.3008,-19.4092,1,0,0,0
-0.0076,-0.0305,0.8896,2.7466,-11.7798,-15.5640,0,1,0,0
-0.1465,-0.0494,1.2095,12.3901,17.3950,17.2729,0,0,1,0
-0.2957,0.0662,0.8147,-20.2637,-8.5449,9.5825,1,0,0,0
-0.2620,0.0431,1.0509,9.5215,8.9722,-4.8828,1,0,0,0
-0.2081,0.0607,0.8951,-5.1880,4.8828,-7.0190,0,0,0,1
-0.1050,-0.0057,0.9606,6.7139,2.5635,-10.5591,0,1,0,0
-0.1422,-0.0068,0.9686,-2.8076,-0.4883,5.9814,0,0,0,1
-0.2157,0.0355,0.9575,-2.5024,-2.4414,1.2207,1,0,0,0
-0.2234,0.0266,1.0006,1.8311,4.1504,5.7983,1,0,0,0
-0.1519,0.0154,0.9547,-1.0376,-2.4414,-4.2114,0,0,0,1
-0.1721,-0.0071,0.9839,-1.3428,0.7935,3.2959,1,0,0,0
-0.1796,0.0203,0.9641,-2.8076,-2.3193,2.4414,1,0,0,0
-0.2023,0.0249,0.9625,-1.9531,0.9155,3.1128,1,0,0,0
-0.1526,0.0306,0.9443,-1.2207,-4.8828,-3.5400,0,0,0,1
-0.1902,0.0098,0.9388,7.2021,4.0894,2.9907,1,0,0,0
-0.1870,-0.0177,0.9932,0.2441,-0.0610,2.7466,1,0,0,0
-0.1853,-0.0005,0.9579,-0.8545,-1.7090,-0.6714,1,0,0,0
-0.1775,0.0037,0.9639,-3.7231,-1.5869,1.7700,1,0,0,0
-0.1790,0.0016,0.9683,-3.6011,-1.3428,1.4648,1,0,0,0
-0.1617,0.0010,0.9740,-1.4038,0.5493,-0.6104,1,0,0,0
-0.1777,-0.0006,0.9780,-0.8545,1.0376,1.9531,1,0,0,0
-0.1609,0.0088,0.9578,-0.6714,-0.7324,-0.3052,0,0,0,1
-0.1837,-0.0001,0.9695,-2.0142,-0.7935,-0.4272,1,0,0,0
-0.1859,0.0065,0.9714,-1.5869,-0.3052,0.0610,1,0,0,0
-0.1573,-0.0020,0.9751,-1.5259,0.3052,-1.1597,1,0,0,0
-0.1791,0.0040,0.9657,-1.2207,0.3662,0.2441,1,0,0,0
-0.1597,0.0000,0.9774,-2.2583,-1.2817,-0.6714,1,0,0,0
-0.1707,-0.0022,0.9768,-1.4038,-0.6104,-1.4648,1,0,0,0
-0.1661,0.0001,0.9749,-1.6479,1.6479,2.6855,1,0,0,0
-0.1617,0.0083,0.9906,-0.8545,3.5400,0.4272,0,0,0,1
-0.1564,-0.0559,1.1833,6.7139,15.6860,-3.3569,0,0,1,0
0.0962,-0.1830,1.4058,6.8970,52.1851,19.1650,0,1,0,0
0.0582,-0.0555,1.2603,1.2817,82.2144,38.1470,0,1,0,0
0.2139,0.0802,0.9886,-17.3950,50.4761,13.9771,0,1,0,0
0.0630,0.0538,0.9272,-4.2725,40.9546,-0.6104,0,1,0,0
0.2568,0.1013,0.6991,-6.1646,21.1182,20.7520,0,1,0,0
0.2097,-0.0807,0.7928,42.4194,53.2837,80.5664,0,1,0,0
-0.0988,-0.0463,0.8088,-5.5542,0.2441,17.3340,0,1,0,0
0.0793,0.0074,0.8248,-21.5454,-6.7139,-18.0054,0,1,0,0
0.1622,0.0675,0.8093,-8.6060,7.1411,-6.5308,0,1,0,0
0.2264,0.0457,0.8669,0.8545,10.6812,-3.0518,0,1,0,0
0.2797,0.0468,0.8383,3.8452,-0.7324,-15.0146,0,1,0,0
0.3225,-0.0192,0.8945,5.8594,-4.0283,-13.6108,0,1,0,0
0.2633,-0.0784,0.9384,3.6011,-4.6387,-11.0474,0,1,0,0
0.2371,-0.0631,0.9288,2.1362,-1.2207,-7.7515,0,1,0,0
0.2296,-0.0352,0.9026,-1.7700,0.4883,-2.2583,0,1,0,0
0.2335,-0.0563,0.8563,4.8218,1.0376,-2.5024,0,1,0,0
0.2913,-0.0557,0.8420,4.2114,-18.5547,-13.2446,0,1,0,0
0.2628,-0.0145,0.8132,-8.6060,-34.4849,-6.6528,0,1,0,0
0.1860,-0.0211,0.8124,-9.4604,-50.1099,4.0894,0,1,0,0
-0.0050,-0.0292,0.9155,-2.0752,-66.7114,9.9487,0,1,0,0
0.1187,-0.1421,1.0477,-26.6724,-111.5112,-27.6489,0,1,0,0
-0.1827,0.5380,2.0833,85.8154,-83.5571,-16.1743,0,0,0,1
-0.1898,-0.1418,0.4327,-85.8154,18.3716,38.4521,0,0,1,0
-0.1361,-0.2490,0.8339,-27.0386,1.4038,-12.3291,0,0,1,0
0.0599,0.3032,0.9443,-13.1226,-54.3823,-5.4932,0,0,0,1
-0.0533,-0.0352,1.2313,-1.8921,20.5688,18.0664,0,1,0,0
-0.3514,0.0165,0.8477,-11.4136,-5.1880,13.6719,1,0,0,0
-0.1511,0.1343,1.0040,4.9438,-1.4648,-8.9111,0,0,0,1
-0.0897,-0.0063,0.9755,-1.4648,1.1597,-4.5776,0,1,0,0
-0.1343,0.0493,1.0028,3.7842,2.5635,2.1973,0,0,0,1
-0.1774,0.0444,0.9386,-5.5542,-5.1880,-2.5024,0,0,0,1
-0.1534,0.0746,0.9767,-0.3662,3.2349,4.4556,0,0,0,1
-0.1538,0.0621,0.9587,-2.8076,1.2817,-0.3052,0,0,0,1
-0.1165,0.0646,0.9471,-1.8921,-1.2817,-1.5869,0,0,0,1
-0.1570,0.0608,0.9878,1.1597,-1.5259,1.0986,0,0,0,1
-0.1832,0.0978,0.9890,-2.3193,-2.6245,-3.1128,0,0,0,1
-0.1697,0.1423,1.0178,5.9204,8.6670,-13.8550,0,0,0,1
-0.0643,0.1445,0.9442,5.4932,1.4038,-30.5176,0,0,0,1
-0.1750,0.1788,1.0206,28.3813,10.8643,-38.6353,0,0,0,1
-0.2596,0.3743,0.7635,27.2827,-8.4229,-79.2847,0,0,0,1
-0.1388,-0.0081,0.8547,81.7261,1.1597,-125.6714,0,0,0,1
-0.3087,-0.1705,0.8099,63.2935,-0.7935,-85.0220,1,0,0,0
-0.3199,-0.3789,0.8197,70.9839,-15.0146,-135.1318,0,0,1,0
-0.2562,-0.4053,0.7565,38.6353,-29.7852,-61.4624,0,0,1,0
-0.2479,-0.6576,1.0001,46.2646,3.7231,-25.8179,0,0,1,0
-0.3013,-0.6573,1.0225,2.0142,-5.9814,-5.4321,0,0,1,0
-0.2711,-0.5924,0.9979,-12.8784,-1.3428,21.4844,0,0,1,0
-0.3263,-0.5129,0.9742,-28.1982,4.8828,44.6167,0,0,1,0
-0.2765,-0.4669,0.9176,-57.4341,7.8735,51.8799,0,0,1,0
-0.2437,-0.3099,0.8203,-89.1724,-6.3477,63.1714,0,0,1,0
-0.3049,-0.1948,0.7732,-111.6333,-18.0054,58.1055,0,0,1,0
-0.2557,0.1292,0.6448,-114.8682,-31.1279,68.7256,0,0,0,1
-0.2216,0.7325,0.7570,-40.0391,-24.2310,75.0732,0,0,0,1
-0.3658,0.0071,1.3958,57.0068,124.7559,72.2656,1,0,0,0
-0.4857,0.0187,0.6755,-20.9351,-6.4697,-4.9438,1,0,0,0
-0.1105,0.1490,0.9177,17.0288,-15.6860,-27.7710,0,0,0,1
-0.1697,-0.1768,1.1976,35.0342,33.4473,-2.1362,0,0,1,0
-0.2494,-0.0063,0.8417,-15.5029,-8.3008,-5.5542,1,0,0,0
-0.1635,-0.0590,1.0734,7.8125,7.6904,2.6855,0,0,1,0
-0.2389,0.0531,0.8669,-11.0474,-2.8687,4.8218,1,0,0,0
-0.1055,-0.1128,1.0444,4.4556,9.8877,10.6812,0,0,1,0
-0.0475,-0.2450,1.0647,-8.9111,8.6670,24.9023,0,0,1,0
-0.0857,-0.2218,0.9983,-21.6064,11.7187,60.2417,0,0,1,0
-0.0613,-0.1927,1.0210,-31.3110,7.0801,71.3501,0,0,1,0
-0.1088,-0.1940,0.9309,-41.7480,7.5684,102.7832,0,0,1,0
-0.3589,-0.0486,0.8787,-59.5093,4.6997,120.3613,1,0,0,0
-0.4161,0.2490,0.8198,-42.9077,16.4795,89.9048,1,0,0,0
-0.3137,0.3348,0.8860,-27.2217,-5.6152,57.7393,0,0,0,1
-0.5480,0.4608,0.7832,-39.4287,-13.7329,78.4302,0,0,0,1
-0.4681,0.5076,0.8213,-9.0332,-6.2866,11.1694,0,0,0,1
-0.4417,0.4137,0.8265,5.3711,-5.7373,-14.8926,0,0,0,1
-0.3964,0.3087,0.8824,17.2119,-6.2866,-43.4570,0,0,0,1
-0.3695,0.2981,0.8688,13.5498,-7.7515,-44.0063,0,0,0,1
-0.3376,0.2778,0.8397,18.0664,-13.9771,-53.8330,0,0,0,1
-0.2882,0.1393,0.9526,24.4751,9.5825,-51.6357,0,0,0,1
-0.3605,0.1614,0.8876,12.5122,-6.7749,-60.7910,1,0,0,0
-0.1730,0.0781,0.9287,34.8511,7.1411,-68.4204,0,0,0,1
-0.0653,-0.0273,0.9362,40.3442,6.1646,-57.3120,0,1,0,0
-0.0486,-0.1190,0.9869,29.1138,0.5493,-35.5835,0,0,1,0
-0.0854,-0.0851,1.0627,0.5493,-13.9160,-17.5171,0,0,1,0
-0.1897,0.0167,1.0121,20.0806,1.9531,-16.6626,1,0,0,0
-0.1991,0.0579,0.9479,-0.3052,-5.1880,-18.0664,0,0,0,1
-0.1022,-0.0098,0.9452,8.9722,-4.5166,-21.6675,0,1,0,0
-0.1367,-0.0741,1.0011,10.4980,-1.5259,-4.4556,0,0,1,0
-0.1995,-0.0247,0.9983,-1.0376,-3.1128,0.4883,1,0,0,0
-0.2010,0.0341,0.9452,-1.1597,-1.3428,-2.1973,1,0,0,0
-0.1726,0.0089,0.9751,0.7935,0.4883,-2.6245,1,0,0,0
-0.2012,0.0000,0.9734,2.0752,2.7466,-1.5869,1,0,0,0
-0.1797,-0.0226,0.9913,0.1221,-1.3428,-5.5542,1,0,0,0
-0.1930,-0.0071,0.9515,1.1597,-1.2817,-11.6577,1,0,0,0
-0.2922,0.0311,0.8384,26.3672,7.4463,-27.3438,1,0,0,0
-0.1844,-0.1837,1.0420,64.0869,30.3955,-57.1899,0,0,1,0
-0.1611,-0.1647,1.0200,8.1787,4.6997,-87.4023,0,0,1,0
-0.1602,-0.0900,0.9655,-7.5073,17.3340,-86.1206,0,0,1,0
-0.1952,-0.0474,0.9690,-8.9722,28.2593,-109.9854,1,0,0,0
-0.0881,-0.0181,0.8821,3.2349,32.7759,-98.0225,0,1,0,0
0.2021,-0.2068,1.0870,-0.3662,39.1235,-66.7725,0,1,0,0
0.1903,-0.1460,0.9388,-21.0571,-4.3335,-26.7944,0,1,0,0
0.0120,-0.0438,0.8912,-8.4229,-6.4697,1.2817,0,1,0,0
0.0560,-0.0472,1.0002,0.7935,-5.8594,8.9722,0,1,0,0
0.1945,-0.0560,1.0016,-8.3008,-14.4653,45.4102,0,1,0,0
0.0787,-0.0447,0.8240,24.0479,-15.1978,120.0562,0,1,0,0
-0.2344,-0.1560,1.0018,38.8184,-5.0049,98.6328,0,0,1,0
-0.0529,-0.2527,1.1417,-5.3101,-18.8599,48.4009,0,0,1,0
0.0607,-0.1945,0.9615,-25.8789,-10.0708,97.2900,0,1,0,0
-0.0824,-0.2139,0.9163,11.2915,31.0059,131.9580,0,0,1,0
-0.3245,-0.1284,1.0192,-25.5737,-23.6206,44.2505,1,0,0,0
-0.1781,0.0211,0.9570,-31.5552,-48.2788,-40.2832,0,0,0,1
-0.1152,-0.0333,0.9781,16.0522,7.2021,0.4883,0,1,0,0
-0.0996,-0.0953,0.9890,2.2583,-4.3945,-14.2822,0,0,1,0
-0.0549,-0.0992,0.9856,0.3662,-7.6904,-12.1460,0,1,0,0
-0.1470,-0.1016,1.0057,-1.6479,-0.4272,3.8452,0,0,1,0
-0.1063,-0.0594,0.9569,-6.7139,-3.9673,-3.1128,0,0,1,0
-0.1191,-0.0627,0.9708,-2.1973,-1.3428,3.1738,0,0,1,0
-0.1246,-0.0499,0.9385,-4.3335,-2.6855,2.2583,0,0,1,0
-0.1250,-0.0685,0.9819,-1.4648,-0.6104,3.2959,0,0,1,0
-0.0978,-0.0743,0.9854,-6.1035,-1.4038,5.3711,0,0,1,0
-0.0878,-0.0610,0.9607,-4.2725,-1.8311,13.9771,0,1,0,0
-0.1055,-0.0775,0.9900,-8.6670,-2.9297,29.4189,0,0,1,0
-0.0902,-0.0851,0.9950,-20.0195,-5.7373,40.0391,0,0,1,0
-0.0406,-0.1252,0.9802,-17.1509,3.7842,66.4673,0,0,1,0
-0.0563,-0.1506,1.0085,-26.4282,1.1597,73.3643,0,0,1,0
-0.0767,-0.0937,0.9479,-32.7148,-6.7139,81.6040,0,0,1,0
-0.0448,-0.1335,1.0021,-38.5132,-8.3618,100.4028,0,0,1,0
-0.1432,-0.0945,0.9897,-39.0015,-7.5684,115.9668,0,0,1,0
-0.3115,0.0198,0.9028,-45.4102,-4.3945,121.9482,1,0,0,0
-0.4276,0.1171,0.8685,-40.3442,-8.6670,102.4780,1,0,0,0
-0.4830,0.2039,0.8136,-27.8320,-7.2021,82.1533,1,0,0,0
-0.5961,0.2097,0.9001,-8.3008,-6.1035,41.5649,1,0,0,0
-0.4830,0.2762,0.8170,-6.8359,15.7471,27.8931,1,0,0,0
-0.5046,0.2297,0.8522,-5.6763,-3.9673,-1.3428,1,0,0,0
-0.4373,0.1691,0.9008,3.2349,0.2441,-21.5454,1,0,0,0
-0.4623,0.1858,0.8966,5.8594,-2.1973,-34.3628,1,0,0,0
-0.4452,0.1807,0.8811,12.6343,2.5635,-46.5698,1,0,0,0
-0.4821,0.1981,0.8400,27.2827,2.5635,-75.8057,1,0,0,0
-0.3292,0.0944,0.8948,34.5459,13.1836,-86.6699,1,0,0,0
-0.2743,0.0074,0.9242,42.0532,10.5591,-99.6094,1,0,0,0
-0.1616,-0.0522,1.0068,26.6724,3.5400,-90.5151,0,0,1,0
-0.0969,-0.0317,0.9583,13.9160,1.6479,-73.9136,0,1,0,0
-0.1506,-0.0071,0.9637,9.0942,-3.8452,-64.6362,0,0,0,1
-0.0696,-0.0372,0.9629,20.5688,0.4883,-63.1714,0,1,0,0
-0.0498,-0.0474,0.9948,25.8789,-4.1504,-44.1284,0,1,0,0
-0.0747,0.0034,0.9202,4.9438,-10.5591,-22.0337,0,1,0,0
-0.1343,-0.0494,1.0010,11.1084,-3.7231,-1.7700,0,0,1,0
-0.2214,-0.0320,1.0088,4.5166,-5.0659,-13.0005,1,0,0,0
-0.1588,-0.0278,0.9796,1.3428,-5.9204,-17.0898,1,0,0,0
-0.1628,-0.0107,0.9556,1.4038,-2.9907,-9.2773,1,0,0,0
-0.1846,-0.0104,0.9567,-2.0142,-4.6997,-5.4321,1,0,0,0
-0.1965,-0.0056,0.9789,-3.4790,-2.6245,-3.1128,1,0,0,0
-0.2163,0.0134,0.9478,-2.1362,-0.1221,-3.2959,1,0,0,0
-0.1819,-0.0011,0.9734,-0.5493,-3.2959,-9.7656,1,0,0,0
-0.2410,-0.0017,0.9709,0.1831,-1.9531,-6.0425,1,0,0,0
-0.2032,0.0132,0.9446,1.7090,-3.4790,-14.0991,1,0,0,0
-0.2209,-0.0062,0.9480,12.3901,-0.8545,-18.7378,1,0,0,0
-0.2112,-0.0258,0.9653,3.3569,5.2490,-5.1880,1,0,0,0
-0.1749,-0.0382,0.9827,8.4229,-0.4272,-11.1694,1,0,0,0
-0.2178,-0.0363,0.9572,6.1035,-2.6245,-9.2773,1,0,0,0
-0.1771,-0.0431,0.9686,1.0986,0.1831,-5.6152,1,0,0,0
-0.2050,-0.0494,0.9655,5.4932,0.7324,-3.2349,1,0,0,0
-0.1938,-0.0613,0.9789,3.3569,0.4883,-4.2114,1,0,0,0
-0.2161,-0.0709,0.9869,8.7891,1.1597,-6.4087,1,0,0,0
-0.2030,-0.1804,1.1295,6.1646,7.6904,-3.2959,0,0,1,0
-0.1404,-0.2380,1.2969,-24.5361,8.0566,-11.5967,0,0,1,0
-0.1295,-0.0480,1.1863,-15.5029,54.4434,10.3760,0,0,1,0
-0.0387,-0.0354,1.1824,-18.2495,91.2476,48.4619,0,1,0,0
-0.1266,0.0632,1.0468,-53.4668,78.2471,21.5454,0,0,0,1
0.2743,0.1732,0.8199,-45.0439,62.6221,-5.3101,0,1,0,0
0.3722,0.1356,0.8607,-36.0107,69.5801,39.3066,0,1,0,0
0.2311,0.2767,0.6462,-66.2842,5.1880,-11.7798,0,1,0,0
0.3452,0.2821,0.5647,0.9766,50.1709,45.8374,0,1,0,0
0.1975,0.2397,0.6592,8.9111,24.1699,23.7427,0,1,0,0
0.1786,0.2131,0.6830,10.0098,-7.5684,4.5166,0,1,0,0
0.3162,0.1670,0.7301,7.8735,-45.2881,-26.9775,0,1,0,0
0.2330,0.2302,0.7886,1.4038,-69.4580,-27.4048,0,1,0,0
0.1122,0.3575,0.6952,14.5264,-53.2227,-18.6157,0,0,0,1
0.1377,0.1263,0.8265,41.2598,-43.5181,-27.5269,0,1,0,0
0.0444,0.0422,1.0205,28.5034,-38.3911,-1.2817,0,1,0,0
-0.0776,-0.0138,1.0853,4.8218,-49.8657,-29.6021,0,1,0,0
-0.1512,0.1550,0.9037,-24.6582,-69.5190,-31.0669,0,0,0,1
-0.0168,0.0482,1.1324,2.5024,-20.9961,4.8828,0,1,0,0
-0.0955,0.0667,1.0516,-9.2773,-20.0806,19.9585,0,0,0,1
-0.0658,-0.0070,1.0306,-23.0103,-38.0249,13.0005,0,1,0,0
-0.1340,0.6599,1.4137,32.3486,-51.9409,13.3057,0,0,0,1
-0.0712,-0.1216,1.0170,-11.4136,33.6914,21.2402,0,0,1,0
-0.3323,0.0148,0.8298,-13.3057,-3.2959,4.1504,1,0,0,0
-0.1831,0.3136,1.0223,0.8545,-5.4321,4.6387,0,0,0,1
-0.1505,0.0435,0.9049,-1.8311,2.6245,-5.2490,0,0,0,1
-0.2571,0.1451,0.9238,-0.9155,-6.0425,0.5493,0,0,0,1
-0.1218,0.0103,1.0000,-1.0986,-1.0986,-6.0425,0,0,0,1
-0.2505,0.1157,0.9604,-1.7700,-0.1221,3.9673,0,0,0,1
-0.1866,0.0715,0.9594,-6.6528,-2.5635,0.4883,0,0,0,1
-0.2046,0.1201,0.9115,-4.8218,0.4883,8.0566,0,0,0,1
-0.2467,0.1309,0.9503,-0.4272,0.9155,4.5776,0,0,0,1
-0.2325,0.1284,0.9622,-1.9531,1.1597,-0.2441,0,0,0,1
-0.1953,0.1520,0.9089,2.9907,-0.2441,-5.1880,0,0,0,1
-0.2061,0.1521,0.8831,14.6484,-3.7842,-16.7847,0,0,0,1
-0.1481,-0.0189,1.0613,22.4609,5.6763,-4.5776,1,0,0,0
-0.2280,0.0345,1.0240,0.4883,-0.7324,-0.3052,1,0,0,0
-0.2322,0.1256,0.9707,2.6855,9.1553,-4.8218,0,0,0,1
-0.1891,0.1199,0.8716,36.1938,17.1509,-30.0293,0,0,0,1
-0.1066,-0.0717,1.1089,60.7910,23.1934,-47.1191,0,0,1,0
-0.1305,-0.0510,0.9509,25.2075,0.7324,-61.4624,0,0,1,0
-0.1714,-0.1188,0.9613,37.5366,31.0669,-43.6401,0,0,1,0
-0.2800,-0.1235,0.9462,2.6245,20.0806,-77.8198,1,0,0,0
-0.2361,-0.1818,0.8257,14.8926,-11.8408,-129.9438,0,0,1,0
-0.1088,-0.3619,1.0612,31.7383,-11.9019,-135.6812,0,0,1,0
-0.1613,-0.2770,0.9662,-3.8452,2.2583,-97.3511,0,0,1,0
-0.0321,-0.1912,0.8828,7.2021,3.6011,-72.9980,0,0,1,0
-0.0032,-0.2949,0.9696,10.8643,10.1929,1.7090,0,0,1,0
-0.0945,-0.3174,1.0111,-6.2866,-5.4321,18.4326,0,0,1,0
-0.1157,-0.2784,0.9971,-13.0005,-5.1270,41.3818,0,0,1,0
-0.1666,-0.2557,0.9875,-14.7705,4.3945,70.7397,0,0,1,0
-0.1188,-0.2827,0.9762,-1.4648,4.5776,86.2427,0,0,1,0
-0.0839,-0.2937,0.9581,-8.9722,10.8643,112.3657,0,0,1,0
-0.1364,-0.2678,0.9883,-28.6255,8.8501,109.2529,0,0,1,0
-0.0917,-0.1136,0.8959,-53.3447,-14.7095,109.9243,0,0,1,0
-0.2146,0.0261,0.8508,-45.8984,-10.7422,115.2954,1,0,0,0
-0.2194,0.1151,0.9910,-21.3013,-16.6626,52.2461,0,0,0,1
-0.2186,0.2368,0.9386,-12.6343,-12.5732,18.9209,0,0,0,1
-0.1233,0.1052,1.0740,11.3525,7.9956,-8.3008,0,0,0,1
-0.1309,0.0736,0.9592,5.1880,8.3008,-19.5923,0,0,0,1
-0.0551,-0.0327,0.9868,10.0098,13.0615,-13.4277,0,1,0,0
-0.0587,-0.0963,0.9852,9.2773,9.1553,-16.9067,0,1,0,0
-0.0370,-0.1010,0.9469,4.5776,4.5166,-7.4463,0,1,0,0
0.0161,-0.1626,1.0118,2.8076,1.0986,-0.6714,0,1,0,0
-0.0061,-0.1677,0.9761,-4.7607,-3.5400,9.8877,0,0,1,0
0.0259,-0.2863,1.0463,-14.9536,6.0425,34.1187,0,0,1,0
-0.0024,-0.2225,0.9871,-34.4238,-0.2441,58.5327,0,0,1,0
-0.0109,-0.1467,0.9570,-31.9214,1.2207,78.0640,0,1,0,0
-0.0337,-0.0825,0.9922,-30.5176,-3.1128,107.6050,0,1,0,0
-0.1962,0.0266,0.9846,-27.7100,6.6528,138.4888,1,0,0,0
-0.2672,0.1046,0.9734,-43.0908,9.7046,119.0796,1,0,0,0
-0.3682,0.3403,0.7299,-58.7769,-14.2822,79.4067,0,0,0,1
-0.3044,0.4957,0.8981,-27.2217,-10.6812,49.7437,0,0,0,1
-0.4282,0.5432,0.8756,-29.5410,-12.8174,15.1367,0,0,0,1
-0.3984,0.4540,0.7708,7.9956,-5.3101,-43.9453,0,0,0,1
-0.1968,0.2823,0.9296,23.6816,1.0376,-40.0391,0,0,0,1
-0.2565,0.2692,0.9578,24.8413,0.0000,-49.9878,0,0,0,1
-0.4028,0.4370,0.7594,-0.9155,-23.4985,-52.7954,0,0,0,1
-0.3572,0.3564,0.7848,30.5176,-21.1182,-97.1069,0,0,0,1
-0.1774,0.1597,0.8538,41.7480,-13.1836,-86.5479,0,0,0,1
-0.1838,0.0042,0.9344,35.4004,-24.5361,-87.8906,1,0,0,0
-0.0521,-0.1184,1.0712,46.5698,-4.0894,-62.3169,0,0,1,0
-0.1061,-0.2131,1.0927,47.1802,8.9111,-46.8750,0,0,1,0
-0.1257,-0.0962,1.0238,9.8267,-17.7002,-40.2222,0,0,1,0
-0.0151,-0.1031,0.9980,2.6245,-2.5635,-17.8223,0,1,0,0
-0.0826,-0.1395,1.0508,10.9863,-0.2441,-3.2349,0,0,1,0
-0.1613,-0.0016,0.9816,-7.7515,-4.8828,4.0283,1,0,0,0
-0.1841,0.0426,0.9475,-2.6855,-2.0752,-0.1831,0,0,0,1
-0.1426,0.0281,0.9617,0.9766,-1.7090,-4.0894,0,0,0,1
-0.1635,-0.0007,0.9795,-0.1221,-0.1831,1.9531,1,0,0,0
-0.1415,-0.0262,1.0006,-0.3662,0.3662,-1.8311,0,0,1,0
-0.1560,-0.0009,0.9690,-2.6245,-0.1221,2.3804,0,0,0,1
-0.1598,0.0077,0.9747,-3.9062,-3.7842,-1.1597,0,0,0,1
-0.1671,0.0084,0.9667,-0.9155,-1.0986,-0.1831,1,0,0,0
-0.1509,0.0087,0.9626,-2.5024,-0.1221,-0.1831,0,0,0,1
-0.1625,0.0021,0.9744,-2.0752,-0.1221,0.4883,1,0,0,0
-0.1525,0.0199,0.9553,-3.1128,-0.6104,-0.0610,0,0,0,1
-0.1600,0.0031,0.9843,-1.0376,-2.1973,-1.6479,0,0,0,1
-0.1697,0.0199,0.9565,-1.3428,-0.6714,1.8921,0,0,0,1
-0.1416,0.0081,0.9712,-4.8218,-3.5400,-2.5635,0,0,0,1
-0.1705,0.0111,0.9779,-1.2207,1.3428,2.6245,1,0,0,0
-0.1577,0.0232,0.9635,-1.8311,-2.1362,-1.8311,0,0,0,1
-0.1658,0.0206,0.9641,-2.0142,-0.4883,-1.3428,0,0,0,1
-0.1571,0.0081,0.9746,-0.1831,0.1831,-0.3052,0,0,0,1
-0.1512,0.0215,0.9653,-1.4648,-3.4180,-2.5635,0,0,0,1
-0.1754,0.0046,0.9886,-0.3662,-0.3052,2.9297,1,0,0,0
-0.1647,0.0181,0.9688,-1.7090,-0.1831,-2.6245,0,0,0,1
-0.1578,0.0114,0.9752,-1.8921,0.9766,-0.0610,0,0,0,1
-0.1565,0.0131,0.9597,-1.1597,-0.2441,-0.4883,0,0,0,1
-0.1641,0.0240,0.9585,-1.6479,-1.7700,-1.0376,0,0,0,1
-0.1520,-0.0057,0.9998,-0.7935,-0.6104,-0.4883,0,0,0,1
-0.1527,0.0131,0.9739,-2.0752,-1.1597,0.4883,0,0,0,1
-0.1644,0.0153,0.9781,-0.9766,0.2441,-1.5259,0,0,0,1
-0.1541,0.0072,0.9719,-2.5024,-3.1738,-1.4038,0,0,0,1
-0.1299,-0.0310,1.0372,2.5635,-10.0708,-6.7139,0,0,1,0
-0.1516,-0.0573,1.1360,6.0425,12.2681,7.5073,0,0,1,0
-0.1180,-0.1088,1.2943,-1.1597,47.1191,28.8086,0,0,1,0
-0.0165,-0.0702,1.2029,-5.1880,78.3691,42.6636,0,1,0,0
0.0571,0.0219,1.0974,-31.1890,81.5430,43.5181,0,1,0,0
0.1895,0.1044,0.9924,-25.3906,64.4531,21.8506,0,1,0,0
0.2566,0.1270,0.7946,-40.0391,18.4937,2.8076,0,1,0,0
0.1052,0.1124,0.7871,-75.6226,-24.1089,-25.6958,0,1,0,0
0.1033,0.3035,0.6295,-44.4336,-4.1504,-4.8828,0,0,0,1
0.0662,0.2936,0.7150,-3.4790,30.2734,34.9121,0,0,0,1
0.1392,0.2743,0.7103,2.1362,8.1177,11.2915,0,0,0,1
0.1160,0.2919,0.6624,23.8647,-9.1553,-10.6201,0,0,0,1
0.2832,0.1190,0.8717,33.5083,-28.3813,-38.2690,0,1,0,0
0.1914,0.0930,0.8656,22.4609,-35.0342,-14.8926,0,1,0,0
0.0488,0.1410,0.8885,14.1602,-43.2129,-4.2114,0,1,0,0
-0.0482,0.0978,1.0090,14.0381,-40.1001,-11.6577,0,0,0,1
-0.0951,0.1262,0.9955,4.6997,-37.5366,-16.7847,0,0,0,1
-0.0513,0.0547,1.0817,6.4087,-21.6675,-12.9395,0,1,0,0
-0.1046,0.1210,0.9615,-0.4272,-29.3579,-13.4888,0,0,0,1
0.0325,-0.0375,1.0374,11.1084,-15.2588,-7.8125,0,1,0,0
-0.0298,0.0646,0.9386,-6.9580,-41.0156,-1.2207,0,1,0,0
-0.0198,0.2098,1.2094,7.4463,-51.6968,-5.6763,0,0,0,1
-0.2783,-0.0759,1.2036,3.4790,4.0283,1.2207,1,0,0,0
-0.3737,-0.0044,0.8772,-14.2822,-2.4414,-3.2959,1,0,0,0
-0.1713,0.1520,0.9705,4.0894,-3.9062,-10.6812,0,0,0,1
-0.1298,-0.0153,1.0377,-4.0283,6.4087,0.3662,0,1,0,0
-0.2419,0.1340,0.8955,-2.9907,-2.9297,-1.2207,0,0,0,1
-0.1997,0.0410,0.9767,4.2114,-1.0986,-4.8828,1,0,0,0
-0.2058,0.0883,0.9358,-3.8452,-0.4272,0.4883,0,0,0,1
-0.1470,0.0396,0.9908,1.5869,-1.8921,-3.2959,0,0,0,1
-0.0543,0.0323,0.9362,0.2441,-5.2490,0.9155,0,1,0,0
-0.2213,0.0471,0.9861,9.6436,4.1504,33.2642,1,0,0,0
-0.1583,0.0289,1.1030,-0.1221,-2.1973,3.0518,0,0,0,1
0.0135,0.1055,0.8490,13.3057,-4.5166,14.8315,0,1,0,0
-0.3248,0.0314,0.9562,21.9116,-2.0752,30.4565,1,0,0,0
-0.2097,-0.0630,0.9321,11.8408,-27.5879,-24.1699,1,0,0,0
-0.2145,-0.0947,0.8850,5.8594,-39.6118,-16.6016,1,0,0,0
-0.4391,-0.0654,0.8385,3.3569,-28.9307,-10.3760,1,0,0,0
-0.4529,-0.1342,0.9261,6.8970,-11.4136,10.6812,1,0,0,0
-0.4979,-0.1403,0.9355,0.4883,-10.8032,18.0054,1,0,0,0
-0.5427,-0.1088,0.9208,0.4883,-3.7842,8.9722,1,0,0,0
-0.4451,-0.0852,0.8833,-2.5635,-2.2583,-2.9907,1,0,0,0
-0.3936,-0.0907,0.9014,1.7700,1.6479,-1.1597,1,0,0,0
-0.3761,-0.0974,0.9061,1.1597,-0.7324,-3.3569,1,0,0,0
-0.4508,-0.1012,0.9188,-3.1738,1.3428,3.9673,1,0,0,0
-0.4999,-0.1174,0.9436,0.9155,13.6108,1.9531,1,0,0,0
-0.4589,-0.1375,0.9413,-6.5918,21.1792,-0.5493,1,0,0,0
-0.4016,-0.0575,0.8705,-13.9160,21.3013,-4.8218,1,0,0,0
-0.4181,-0.0049,0.9192,-7.2632,12.5732,-30.1514,1,0,0,0
-0.2457,-0.0945,0.9830,7.5073,20.4468,-45.8374,1,0,0,0
-0.1573,-0.1025,0.8997,-0.1221,34.4238,-12.5122,0,0,1,0
-0.0947,-0.1049,0.9065,-8.7891,15.8081,-8.7891,0,0,1,0
-0.0793,0.0122,0.8589,-21.0571,-14.5264,-13.8550,0,1,0,0
-0.0723,0.0300,0.8812,-11.4136,-16.8457,1.0376,0,1,0,0
-0.1569,-0.0240,1.0392,-8.8501,-16.9067,13.0615,1,0,0,0
-0.2471,-0.0150,1.0713,-21.9116,-24.4141,0.1221,1,0,0,0
-0.3804,0.0420,0.9702,-8.6670,2.5024,19.3481,1,0,0,0
-0.3596,0.0353,0.9307,-0.9155,8.6670,2.9907,1,0,0,0
-0.2012,0.0299,0.9362,0.7935,6.1646,0.5493,1,0,0,0
-0.2894,0.0747,0.9137,-5.0659,-2.0142,0.1831,1,0,0,0
-0.3185,0.0547,0.9562,0.3052,3.4180,0.8545,1,0,0,0
-0.2919,0.0067,0.9773,2.6245,5.6763,-3.9062,1,0,0,0
-0.3069,0.0028,0.9908,-2.6245,11.4136,-3.6621,1,0,0,0
-0.3400,0.0626,0.9133,-10.7422,15.5640,-16.4795,1,0,0,0
-0.2393,0.0076,0.9891,2.7466,20.2637,-25.8789,1,0,0,0
-0.2660,0.0531,0.8782,-4.6997,5.9814,-21.8506,1,0,0,0
-0.1285,-0.0161,0.9463,-12.6343,9.0942,-17.3950,0,1,0,0
-0.2258,0.1437,1.0374,-27.4658,-9.0332,-7.0190,0,0,0,1
-0.2010,0.2742,1.1138,15.8691,38.7573,-32.5317,0,0,0,1
0.0538,-0.0408,0.8784,16.4795,30.6396,-41.7480,0,1,0,0
-0.0063,0.0853,0.9330,-10.1929,5.1270,-26.2451,0,1,0,0
0.0128,0.1423,0.9915,-9.0942,8.6670,-39.1235,0,0,0,1
0.0613,0.1296,0.8992,-7.9956,6.3477,-33.7524,0,1,0,0
0.0585,0.1135,0.9718,2.9907,8.1787,-18.1274,0,1,0,0
0.0800,0.0862,0.9474,-5.8594,-0.1831,-9.7046,0,1,0,0
0.0382,0.0928,0.9778,-1.0376,-0.4272,3.8452,0,1,0,0
0.0070,0.1240,0.9546,-1.2817,-3.9062,7.9956,0,0,0,1
0.0105,0.1177,0.9684,-1.7700,-3.3569,4.6997,0,1,0,0
0.0110,0.1339,0.9589,0.6104,-2.8687,7.6294,0,0,0,1
-0.0103,0.1219,0.9745,-0.0610,-1.0986,0.8545,0,0,0,1
0.0004,0.0978,0.9761,1.7090,0.9155,2.1973,0,1,0,0
0.0149,0.0969,0.9868,0.6104,-2.3193,-2.8687,0,1,0,0
0.0332,0.0990,0.9515,5.7373,1.0376,8.6060,0,1,0,0
-0.0012,0.0782,1.0087,-2.4414,-2.7466,3.5400,0,1,0,0
0.0020,0.1122,0.9761,-1.3428,-0.1831,3.0518,0,1,0,0
0.1113,0.0769,0.9373,-4.3335,-2.5635,3.3569,0,1,0,0
0.2273,0.0227,0.8857,5.0049,-10.4980,24.4141,0,1,0,0
0.0085,0.0461,1.0089,-8.8501,-28.9307,31.3721,0,1,0,0
-0.0703,0.1178,1.0129,-12.3291,-25.2075,33.8135,0,0,0,1
0.0248,0.1648,0.8694,-6.1646,27.5879,65.3076,0,0,0,1
-0.1447,0.1360,0.8744,54.8096,44.9219,110.4736,0,0,0,1
-0.3125,-0.1145,1.1489,22.6440,-13.4888,18.0664,1,0,0,0
-0.2625,-0.0319,0.9598,-8.9111,-14.0381,-9.9487,1,0,0,0
-0.1970,-0.1000,1.0482,-1.6479,6.4697,3.1738,0,0,1,0
-0.0996,-0.0011,0.9418,-13.3667,-2.5024,-5.9204,0,1,0,0
-0.0541,0.0140,0.9717,-2.0752,-0.9155,-1.2207,0,1,0,0
-0.0812,0.0165,0.9718,-1.0986,-2.6245,-0.6714,0,1,0,0
-0.1266,0.0015,1.0045,-1.0376,0.1221,4.3945,0,0,0,1
-0.0959,0.0137,1.0006,-3.4790,1.0986,-3.0518,0,1,0,0
-0.0941,0.0480,0.9626,-3.5400,-0.6714,-1.4648,0,0,0,1
-0.0687,0.0958,0.9153,-5.3101,-8.4839,-1.5869,0,0,0,1
-0.1127,0.2250,0.8662,-2.1973,-12.3901,2.8076,0,0,0,1
-0.1021,0.1077,0.9207,17.9443,-15.4419,-17.0288,0,0,0,1
-0.1931,0.0157,0.9673,26.9775,-15.9302,-21.2402,1,0,0,0
-0.1539,-0.0236,0.9050,25.6348,-29.1748,-42.4805,1,0,0,0
-0.1719,-0.0394,0.8903,29.3579,-43.6401,-49.7437,1,0,0,0
-0.3134,-0.1462,0.9755,25.3296,-27.9541,-9.0942,1,0,0,0
-0.3978,-0.2098,0.9359,24.9023,-13.2446,-9.1553,1,0,0,0
-0.4493,-0.3275,0.9868,26.6113,8.7280,-4.8828,1,0,0,0
-0.3931,-0.3621,0.9738,9.0332,2.9297,-13.8550,0,0,1,0
-0.2997,-0.3411,0.9304,-2.2583,4.2725,-9.5825,0,0,1,0
-0.2239,-0.2854,0.9163,1.2817,1.1597,-6.4697,0,0,1,0
-0.2407,-0.2997,0.9807,-6.8970,1.6479,8.6060,0,0,1,0
-0.3270,-0.2883,0.9504,-18.2495,-1.7090,9.4604,0,0,1,0
-0.2969,-0.2769,0.9310,-29.7241,-5.2490,7.2632,0,0,1,0
-0.3059,-0.1543,0.9059,-43.0298,1.0376,22.4609,1,0,0,0
-0.3623,0.0924,0.8413,-34.4849,7.8125,34.0576,1,0,0,0
-0.4575,0.0941,0.8748,2.5024,8.5449,-5.2490,1,0,0,0
-0.2917,0.0118,0.9291,1.8921,2.0142,-33.8745,1,0,0,0
-0.1024,-0.0065,0.9164,-1.8921,11.1694,-7.8125,0,1,0,0
-0.1250,-0.0353,1.0084,-3.6011,9.5215,28.3813,0,0,1,0
-0.1842,-0.1056,1.0797,-2.8076,-0.9155,-2.0142,0,0,1,0
-0.2391,-0.0127,0.9034,-24.6582,-8.4229,7.0801,1,0,0,0
-0.3129,-0.0035,0.9221,-4.6997,0.3052,5.0659,1,0,0,0
-0.1929,-0.0426,0.9948,-6.3477,1.2207,-2.1362,1,0,0,0
-0.2573,0.0059,0.9214,-15.2588,-3.1128,10.0708,1,0,0,0
-0.2728,0.0132,0.9434,-5.7373,-4.6387,0.1831,1,0,0,0
-0.3147,0.0406,0.9181,3.4790,0.6104,-6.2256,1,0,0,0
-0.2352,-0.0010,0.9335,-1.8921,-0.3052,-3.1738,1,0,0,0
-0.1947,-0.0540,1.0045,-0.6714,0.0000,-1.1597,1,0,0,0
-0.2979,0.0215,0.9120,-2.3804,0.4883,5.7983,1,0,0,0
-0.2432,-0.0023,0.9622,-2.4414,-3.4790,-5.4932,1,0,0,0
-0.2738,0.0118,0.9379,5.2490,0.8545,-3.7842,1,0,0,0
-0.2229,-0.0344,0.9860,-1.8311,0.4272,-1.8311,1,0,0,0
-0.2122,-0.0735,0.9890,-3.1128,3.2349,1.9531,1,0,0,0
-0.2476,-0.0731,0.9694,-4.8218,2.0142,5.3711,1,0,0,0
-0.2316,-0.0796,0.9860,-1.0986,8.2397,13.2446,1,0,0,0
-0.2179,-0.1042,1.0111,4.0894,16.6016,17.3950,0,0,1,0
-0.1886,-0.0768,0.9840,-21.2402,9.6436,23.3765,0,0,1,0
-0.1782,-0.0314,0.8754,-15.6250,5.3711,24.4751,1,0,0,0
-0.1602,-0.1030,0.9225,-5.3101,0.3052,34.1187,0,0,1,0
-0.2267,-0.1213,0.9562,-5.4932,2.5024,54.2603,0,0,1,0
-0.2089,-0.0599,0.9939,-12.8784,3.4790,66.9556,1,0,0,0
-0.0808,-0.0176,1.1989,-1.5259,26.4282,98.6938,0,1,0,0
-0.3943,0.1174,0.7998,-106.0181,7.2021,127.0752,1,0,0,0
-0.3696,0.3027,0.6487,-40.1001,-24.3530,25.6348,0,0,0,1
-0.1642,0.2131,1.0148,10.4370,3.4180,36.8652,0,0,0,1
-0.3436,0.2382,1.0500,-27.8931,3.9062,51.8799,0,0,0,1
-0.4442,0.3373,0.8248,-12.0850,-5.0049,-6.8970,0,0,0,1
-0.1729,0.2933,0.8801,-3.9673,-5.0049,-16.1133,0,0,0,1
-0.2552,0.2720,0.8824,4.8828,-11.3525,-22.3999,0,0,0,1
-0.2380,0.1741,0.9792,8.6060,-10.5591,-27.1606,0,0,0,1
-0.3005,0.2152,0.9363,11.2915,-9.0332,-31.6772,0,0,0,1
-0.3037,0.1991,0.9675,9.2773,-7.2632,-38.7573,0,0,0,1
-0.3064,0.2635,0.8488,11.8408,-17.2729,-52.2461,0,0,0,1
-0.2743,0.2153,0.8728,14.5874,-15.2588,-52.3682,0,0,0,1
-0.2529,0.1178,0.9216,33.2642,-6.4697,-53.3447,0,0,0,1
-0.2151,0.0316,0.9287,29.6631,-14.9536,-60.6689,1,0,0,0
-0.2839,0.0167,0.9069,22.2168,-18.7378,-40.5884,1,0,0,0
-0.2510,-0.0587,1.0601,21.7285,-13.4888,-37.4756,1,0,0,0
-0.2777,-0.0564,1.0009,25.5737,5.7983,-21.9116,1,0,0,0
-0.2006,-0.0630,0.9926,4.3335,-1.2817,-17.3340,1,0,0,0
-0.2081,-0.0359,0.9740,15.4419,4.0283,-7.5684,1,0,0,0
-0.2627,-0.0033,0.9611,1.1597,-4.6997,-7.1411,1,0,0,0
-0.2482,0.0132,0.9658,1.0986,-0.7324,-9.5825,1,0,0,0
-0.2578,0.0066,0.9585,-5.1880,-5.4321,-9.1553,1,0,0,0
-0.2609,-0.0005,0.9542,1.4038,-0.5493,-6.1646,1,0,0,0
-0.2540,-0.0380,0.9895,4.2114,-3.8452,-10.8643,1,0,0,0
-0.2314,-0.0286,0.9686,-5.7983,-4.0283,-4.1504,1,0,0,0
-0.2356,0.0071,0.9592,-5.3711,-0.6714,0.4272,1,0,0,0
-0.2891,0.0679,0.9059,-4.9438,-2.5024,0.7935,1,0,0,0
-0.2593,0.0442,0.9227,-1.0986,-6.8359,2.8076,1,0,0,0
-0.2618,-0.0076,0.9670,1.9531,-2.3804,-2.9907,1,0,0,0
-0.2667,0.0023,0.9666,-1.3428,-0.3052,0.6104,1,0,0,0
-0.2780,0.0266,0.9495,-3.7842,-0.5493,-1.4648,1,0,0,0
-0.2802,0.0535,0.9149,-3.6011,-1.2817,-0.9155,1,0,0,0
-0.2739,0.0204,0.9537,-1.3428,-0.7935,-0.3662,1,0,0,0
-0.2726,0.0228,0.9435,-3.0518,-1.4648,-1.4648,1,0,0,0
-0.2823,0.0359,0.9270,-3.1128,-1.4648,-0.4883,1,0,0,0
-0.2848,0.0558,0.9252,-6.1646,-3.0518,0.5493,1,0,0,0
-0.2795,0.0420,0.9396,-1.3428,-0.8545,0.3662,1,0,0,0
-0.2739,0.0338,0.9506,-0.1221,-3.6011,-2.2583,1,0,0,0
-0.2738,0.0261,0.9536,-2.2583,0.6104,0.3052,1,0,0,0
-0.2972,0.0334,0.9529,-0.1831,1.0986,0.3662,1,0,0,0
-0.2615,0.0314,0.9552,-4.8828,-0.7935,-0.5493,1,0,0,0
-0.2666,0.0577,0.9379,-0.7935,0.2441,0.7935,1,0,0,0
-0.1693,0.0132,0.9457,-2.0752,-8.9111,-4.0283,0,0,0,1
-0.1930,-0.0035,0.9725,-0.8545,-5.6152,16.7847,1,0,0,0
-0.2314,0.0077,1.0363,-16.4185,-12.3901,13.6719,1,0,0,0
-0.2170,0.0671,0.9786,-9.3994,-9.7656,11.2915,0,0,0,1
-0.0568,-0.0444,0.9377,1.2207,14.7095,58.7158,0,1,0,0
-0.4100,0.1180,0.7554,-16.4795,-33.0811,32.8979,1,0,0,0
-0.5417,0.0651,0.7751,-11.8408,-32.3486,23.2544,1,0,0,0
-0.7374,0.0513,0.7664,9.5825,-21.5454,16.9067,1,0,0,0
-0.6627,-0.0624,0.9058,25.8179,-1.9531,-3.6011,1,0,0,0
-0.6018,-0.0516,0.8575,14.8926,1.3428,-19.8975,1,0,0,0
-0.4623,-0.0757,0.8922,17.1509,11.1694,-21.7896,1,0,0,0
-0.4385,-0.1085,0.9330,15.1367,21.8506,-13.9771,1,0,0,0
-0.4579,-0.1250,0.9647,1.9531,17.2729,-14.8926,1,0,0,0
-0.4331,-0.1042,0.9717,-28.6255,14.3433,-10.8032,1,0,0,0
-0.3864,0.0061,0.8859,-33.9355,31.3110,-0.1221,1,0,0,0
-0.2625,0.0204,0.9203,-31.2500,23.1323,-9.1553,1,0,0,0
-0.1975,0.1257,0.8414,-21.5454,12.1460,-11.6577,0,0,0,1
-0.2083,0.0979,0.9237,-18.9209,2.9297,-6.1646,0,0,0,1
-0.1545,0.1875,0.7965,-19.5923,-14.2212,-13.6719,0,0,0,1
-0.0872,0.3971,1.0372,21.4844,-13.0615,-3.1738,0,0,0,1
-0.1593,-0.0598,1.1183,-5.9814,13.3057,-3.9673,0,0,1,0
-0.2705,0.1458,0.7897,-1.4038,-8.9111,-2.9297,0,0,0,1
-0.2845,0.0685,1.0837,13.4888,7.0190,3.7842,1,0,0,0
-0.2390,0.1528,0.8478,-7.9346,-0.8545,-1.0986,0,0,0,1
-0.2599,0.1016,0.9646,2.8076,2.5024,4.3335,0,0,0,1
-0.2523,0.1248,0.9093,-3.7842,-1.4038,1.4648,0,0,0,1
-0.2385,0.0793,0.9805,0.8545,1.4648,0.1221,1,0,0,0
-0.2522,0.1079,0.9417,-2.7466,-2.5635,1.1597,0,0,0,1
-0.2803,0.1180,0.9347,-3.1128,-0.7935,-2.6855,1,0,0,0
-0.2362,0.1149,0.9313,-0.1221,-0.1831,-1.2207,0,0,0,1
-0.2798,0.1106,0.9487,-0.4883,-1.4038,-1.1597,1,0,0,0
-0.2432,0.0983,0.9436,-2.3193,0.3052,-0.1221,0,0,0,1
-0.2507,0.1056,0.9502,-2.4414,-0.6104,-1.2817,0,0,0,1
-0.2611,0.1136,0.9469,-2.4414,0.4883,1.2207,0,0,0,1
-0.2434,0.1107,0.9294,-1.4038,-0.2441,-2.8076,0,0,0,1
-0.2344,0.1028,0.9618,-1.7700,0.3662,-0.0610,0,0,0,1
-0.2531,0.1110,0.9490,0.1831,-0.1221,0.0610,0,0,0,1
-0.2783,0.1149,0.9506,-2.0752,1.0376,1.0376,1,0,0,0
-0.2620,0.1294,0.9088,-4.6997,-0.1221,1.0986,0,0,0,1
-0.2543,0.1182,0.9427,-1.8921,0.3662,-0.7324,0,0,0,1
-0.2556,0.1166,0.9408,-1.3428,0.0000,0.9766,0,0,0,1
-0.2606,0.1152,0.9489,-1.6479,-0.3662,0.0610,0,0,0,1
-0.2617,0.1156,0.9429,-4.4556,-1.5259,-1.4038,0,0,0,1
-0.2543,0.1178,0.9498,-0.8545,0.9766,1.5259,0,0,0,1
-0.2410,0.1183,0.9312,-2.2583,-0.7935,-2.0752,0,0,0,1
-0.2659,0.1204,0.9414,-0.7935,0.6104,1.5259,0,0,0,1
-0.2401,0.1136,0.9441,-2.3804,-0.6104,-1.7700,0,0,0,1
-0.2488,0.1177,0.9442,-1.0986,0.5493,1.5869,0,0,0,1
-0.2511,0.1272,0.9370,-1.7090,-0.3052,-0.8545,0,0,0,1
-0.2446,0.1177,0.9368,-2.0142,-0.9766,-0.9155,0,0,0,1
-0.2595,0.1185,0.9454,-2.6245,-1.0986,0.4272,0,0,0,1
-0.2407,0.1080,0.9493,-0.9766,1.5259,1.4648,0,0,0,1
-0.2524,0.1217,0.9386,-2.6245,-1.3428,-2.2583,0,0,0,1
-0.2507,0.1166,0.9484,-1.7700,1.8311,2.4414,0,0,0,1
-0.2302,0.1099,0.9448,-0.4883,0.6714,-2.0752,0,0,0,1
-0.2345,0.1105,0.9501,0.0000,0.9766,0.8545,0,0,0,1
-0.2471,0.1180,0.9407,-0.8545,0.5493,1.8921,0,0,0,1
-0.2328,0.1085,0.9484,-15.6250,0.9766,-0.6104,0,0,0,1
-0.2417,0.1079,0.9545,0.6714,3.6011,4.5776,0,0,0,1
-0.2454,0.1074,0.9318,-3.9673,3.8452,1.8311,0,0,0,1
-0.2196,0.0911,0.9653,0.8545,2.0752,1.2207,0,0,0,1
-0.2238,0.1033,0.9509,-1.5869,-0.6714,0.0000,0,0,0,1
-0.2308,0.1012,0.9584,0.6104,2.0142,1.4038,0,0,0,1
-0.2178,0.0934,0.9615,0.9155,2.0142,0.7935,0,0,0,1
-0.2080,0.0900,0.9554,-0.1221,0.7935,0.0610,0,0,0,1
-0.2311,0.1016,0.9462,2.1973,1.8921,0.6714,0,0,0,1
-0.2067,0.0891,0.9490,0.0000,-0.6714,-2.3193,0,0,0,1
-0.2028,0.0742,0.9707,3.2959,3.6011,1.0376,0,0,0,1
-0.1776,0.0841,0.9545,4.5776,1.1597,-2.0142,0,0,0,1
-0.1575,0.0897,0.9594,5.5542,-0.7935,-4.3335,0,0,0,1
-0.0588,0.0181,0.9749,10.1318,-7.2021,-7.7515,0,1,0,0
-0.1575,0.0425,0.9463,21.7285,-2.7466,7.6904,0,0,0,1
-0.0645,-0.0095,1.0011,-2.8076,9.5825,8.6060,0,1,0,0
-0.1619,0.0186,0.9808,10.8032,8.4839,16.5405,0,0,0,1
-0.1481,-0.0630,1.0471,10.6201,6.1646,-2.3193,0,0,1,0
-0.1936,0.0500,0.8916,-6.6528,-15.3809,-6.1646,0,0,0,1
-0.2217,-0.0402,0.9646,22.0947,-16.1133,-5.2490,1,0,0,0
-0.3057,-0.1221,1.0009,33.5083,4.6387,20.5688,1,0,0,0
-0.4838,-0.1117,0.9703,26.1841,-7.6294,18.1274,1,0,0,0
-0.3767,-0.1749,0.9753,13.3667,-6.7139,-1.1597,1,0,0,0
-0.3319,-0.1676,0.9376,5.7983,-3.9062,-7.9956,1,0,0,0
-0.3069,-0.1461,0.9005,3.2349,-4.5776,-18.6768,1,0,0,0
-0.3213,-0.1917,0.9662,6.6528,3.4790,-3.1738,1,0,0,0
-0.3378,-0.2092,1.0084,4.0894,3.4790,-4.3335,1,0,0,0
-0.4110,-0.1565,0.9468,-10.9863,-5.2490,-6.7749,1,0,0,0
-0.3723,-0.1688,0.9520,-8.6670,14.7095,-1.0986,1,0,0,0
-0.3070,-0.1757,0.9146,-8.7891,38.6353,2.9297,1,0,0,0
-0.0580,-0.2280,0.8915,0.3662,59.3262,25.7568,0,0,1,0
-0.0552,-0.1952,0.8622,-11.5356,44.8608,37.8418,0,0,1,0
0.1216,-0.1936,0.9088,-38.6963,-1.8311,6.5918,0,1,0,0
0.2003,-0.0591,0.7975,-66.8335,-59.5093,2.0752,0,1,0,0
-0.2295,0.1345,1.4583,39.3677,8.1177,17.8223,0,0,0,1
-0.2080,-0.1316,0.7123,-24.7803,-29.2358,-2.6855,0,0,1,0
-0.1757,0.0780,0.8696,-8.6670,-13.0005,6.0425,0,0,0,1
-0.1757,0.0552,1.1062,14.1602,6.1646,-14.6484,0,0,0,1
-0.1693,-0.0710,0.8933,-7.5684,-3.8452,-4.6997,0,0,1,0
-0.1155,-0.0653,1.0435,10.8032,5.7983,-3.2959,0,0,1,0
-0.1365,-0.0393,0.9407,-9.2773,-2.6855,-0.4272,0,0,1,0
-0.1497,-0.0109,0.9948,-0.1221,3.7842,-0.4883,1,0,0,0
-0.1343,0.0021,0.9495,-1.8311,-0.6714,-2.3804,0,0,0,1
-0.1536,-0.0352,0.9910,0.4883,1.8311,-2.1362,1,0,0,0
-0.1201,-0.0376,0.9792,-1.8311,-0.3662,-3.0518,0,1,0,0
-0.1252,-0.0179,0.9572,-3.7231,-0.9155,-2.2583,0,1,0,0
-0.1453,-0.0145,0.9786,-1.8311,0.3052,2.4414,1,0,0,0
-0.1562,-0.0057,0.9745,-1.1597,0.1831,-3.2349,1,0,0,0
-0.1368,-0.0186,0.9752,-1.6479,0.2441,-2.6245,0,0,0,1
-0.1140,-0.0168,0.9651,-4.0894,-1.4038,-2.6245,0,1,0,0
-0.1346,-0.0072,0.9968,-2.6855,-1.0986,-2.1973,0,0,0,1
-0.1532,-0.0077,0.9717,-1.7700,1.7700,-2.6245,1,0,0,0
-0.1177,-0.0193,0.9858,-5.7983,0.0000,-1.7090,0,1,0,0
-0.1364,-0.0200,1.0435,-0.6714,10.1929,3.1128,0,0,0,1
-0.1169,0.0463,1.1045,-2.8687,13.6108,-5.8594,0,0,0,1
0.0319,-0.0743,1.2343,22.7661,50.2319,1.1597,0,1,0,0
0.1071,-0.1609,1.2455,9.2163,64.2090,21.3013,0,1,0,0
0.1987,-0.1477,1.1611,-8.9722,71.0449,37.2314,0,1,0,0
0.1897,-0.0226,0.9591,-12.2070,61.3403,46.4478,0,1,0,0
0.1322,-0.0065,0.8979,-37.7197,35.8276,17.2729,0,1,0,0
0.3529,0.1145,0.6162,-22.2778,28.0151,28.6255,0,1,0,0
0.0986,0.0691,0.7404,-6.2256,38.6353,50.5371,0,1,0,0
0.2756,0.1084,0.7015,0.4883,16.2964,17.0288,0,1,0,0
0.2563,0.1440,0.7250,0.4883,2.1362,6.9580,0,1,0,0
0.3508,0.1332,0.8064,3.9062,-10.2539,-10.9253,0,1,0,0
0.3584,0.1083,0.8983,3.1128,-22.5220,-17.7612,0,1,0,0
0.3033,0.1090,0.8932,3.1128,-17.4561,-17.3340,0,1,0,0
0.2538,0.0565,0.8987,12.8784,-7.0190,-13.5498,0,1,0,0
0.2688,-0.0121,0.9208,5.9204,-8.2397,-19.5923,0,1,0,0
0.2863,-0.0439,0.9144,5.1880,-5.2490,-16.8457,0,1,0,0
0.2749,-0.0006,0.8569,6.7139,-5.1270,-10.2539,0,1,0,0
0.2657,0.0187,0.8907,1.7700,-14.4653,-13.0005,0,1,0,0
0.2742,-0.0608,0.9689,20.9351,-3.6011,-6.8359,0,1,0,0
0.2040,-0.0344,0.9208,-1.2817,-13.6108,-7.9956,0,1,0,0
0.3568,-0.0287,0.9680,-9.8877,-15.5029,-19.2261,0,1,0,0
0.2073,0.0585,0.8706,-16.9067,-37.4756,-13.9771,0,1,0,0
0.2131,-0.0020,0.9935,-33.4473,-70.3125,-31.1279,0,1,0,0
0.1028,0.0524,0.9500,-32.1655,-82.7637,-26.0620,0,1,0,0
0.0802,0.3409,1.2263,5.7983,-88.1958,-26.9165,0,0,0,1
-0.0374,-0.3652,1.2675,29.9683,50.8423,3.2349,0,0,1,0
-0.1373,-0.1692,0.8979,-19.0430,-8.7280,-4.8218,0,0,1,0
-0.0022,0.0927,1.0332,9.5215,-2.9297,8.6060,0,1,0,0
-0.0957,-0.0060,0.9860,-12.6953,-0.5493,11.4746,0,1,0,0
-0.1814,0.1216,0.8920,-0.4272,-3.4180,-0.3662,0,0,0,1
-0.0359,-0.0554,1.0497,0.2441,-2.3804,-8.2397,0,1,0,0
-0.0950,0.0088,0.9658,0.5493,1.5259,-3.2349,0,1,0,0
-0.0631,-0.0173,1.0028,-7.4463,-3.9062,-1.4038,0,1,0,0
-0.0902,0.0215,0.9589,-1.2817,1.6479,1.4038,0,1,0,0
-0.1011,0.0281,0.9773,-2.5024,-0.4883,-2.1362,0,0,0,1
-0.0803,0.0260,0.9641,-2.6245,-0.9155,-0.1831,0,1,0,0
-0.0591,0.0048,0.9808,-0.1221,0.3052,0.9766,0,1,0,0
-0.0588,0.0099,0.9609,0.0610,-0.3052,2.5024,0,1,0,0
-0.0355,0.0256,0.8895,0.9155,9.1553,4.1504,0,1,0,0
0.1313,-0.0198,0.8652,5.3101,6.1035,-3.4180,0,1,0,0
-0.0168,0.0193,0.8811,-28.5645,-16.8457,-7.8735,0,1,0,0
-0.1115,0.1094,0.7131,-3.0518,-48.5840,-23.9258,0,0,0,1
-0.1370,-0.0996,0.9835,44.3115,-0.4272,-0.6104,0,0,1,0
-0.4427,-0.0840,1.2238,-0.7324,-13.9160,-7.6294,1,0,0,0
-0.1934,0.0723,1.3961,-31.7993,-5.9204,-1.4648,0,0,0,1
-0.0581,0.0845,0.8802,-8.0566,-5.3711,5.6763,0,0,0,1
-0.1722,0.0238,0.9723,13.6719,-1.0986,8.3618,0,0,0,1
-0.1566,-0.0330,1.0291,-1.7700,-13.1226,-1.8921,1,0,0,0
-0.1344,-0.0242,1.0410,-0.0610,-7.0801,9.5825,0,0,1,0
-0.1489,-0.0574,1.1350,-6.8970,-9.0942,16.5405,0,0,1,0
-0.1261,-0.0568,1.1271,-12.0850,-7.5684,29.6631,0,0,1,0
-0.2988,0.0305,1.0950,-26.1841,20.0195,41.9922,1,0,0,0
-0.1962,0.0314,1.0811,-15.9912,24.4141,0.9155,1,0,0,0
-0.0829,0.0226,0.9889,-28.7476,45.7764,7.9346,0,1,0,0
-0.0818,0.1191,0.8014,-27.2827,36.9263,3.5400,0,0,0,1
0.0085,0.1517,0.7657,-20.5078,24.2920,-9.8877,0,0,0,1
0.0719,0.1532,0.7739,-4.5166,28.5034,5.2490,0,1,0,0
0.0647,0.1337,0.8402,-2.0142,19.4702,16.0522,0,1,0,0
0.0448,0.1118,0.9272,-1.0376,7.3853,2.6245,0,1,0,0
0.1060,0.1416,0.9100,-2.7466,-2.0752,0.9155,0,1,0,0
0.0988,0.1426,0.9362,-2.6855,1.0986,1.8921,0,1,0,0
0.1021,0.1483,0.9430,-3.5400,-2.5635,2.9297,0,1,0,0
0.0935,0.1245,0.9480,-1.0986,-4.0283,-0.3052,0,1,0,0
0.0393,0.1284,0.8683,-6.4697,-13.2446,1.5869,0,1,0,0
-0.0010,0.1569,0.7631,4.8828,-24.9023,-10.3760,0,0,0,1
0.0123,0.1371,0.7574,18.5547,-41.0156,-8.9111,0,0,0,1
-0.0541,0.0713,0.8293,20.5078,-63.2324,-16.6016,0,0,0,1
-0.2054,0.0929,0.6825,54.1382,-61.7065,-29.2969,0,0,0,1
-0.0212,-0.1637,1.3463,24.8413,-74.8291,0.4272,0,0,1,0
-0.3835,-0.0715,1.6758,70.6787,6.8359,7.0190,1,0,0,0
-0.7417,-0.2894,0.7187,6.7749,-13.9771,23.7427,1,0,0,0
-0.3302,-0.0438,0.9153,0.6104,-19.3481,-20.3247,1,0,0,0
-0.2562,-0.1895,1.1326,12.3901,14.7705,9.8267,0,0,1,0
-0.4404,-0.1130,0.8236,-9.8877,1.7090,0.1831,1,0,0,0
-0.2919,-0.1022,0.9141,2.7466,3.6621,-1.9531,1,0,0,0
-0.3362,-0.1329,0.9268,-5.3101,-0.4272,-0.1831,1,0,0,0
-0.3152,-0.1316,0.9397,3.9062,5.4932,-2.9297,1,0,0,0
-0.3219,-0.1080,0.9227,-3.4180,-1.3428,-3.0518,1,0,0,0
-0.3417,-0.1200,0.9348,-2.7466,3.2349,0.9766,1,0,0,0
-0.3123,-0.1294,0.9563,-3.5400,2.6855,-3.5400,1,0,0,0
-0.3430,-0.1198,0.9633,-4.2725,3.4180,1.2207,1,0,0,0
-0.3350,-0.1202,0.9570,-10.0098,9.1553,4.3945,1,0,0,0
-0.2935,-0.1111,1.0016,-13.8550,8.4229,4.5166,1,0,0,0
-0.3125,-0.0709,1.0017,-8.2397,25.8789,15.3809,1,0,0,0
-0.2220,-0.1353,1.0920,-12.4512,40.0391,13.1226,0,0,1,0
-0.0819,-0.0918,1.0074,-14.7705,37.0483,17.2119,0,0,1,0
-0.0280,-0.0002,0.9377,-16.8457,35.2783,24.6582,0,1,0,0
-0.0376,0.0409,0.8533,-8.5449,16.7847,23.3154,0,1,0,0
-0.2194,-0.0183,0.9329,-19.2261,-0.6714,14.5874,1,0,0,0
-0.2745,-0.0242,0.9620,-11.6577,-5.2490,-8.9722,1,0,0,0
-0.1766,0.0289,0.9242,-9.1553,-8.2397,-28.3813,0,0,0,1
-0.1652,0.0505,0.9111,8.7891,-6.4697,-34.6069,0,0,0,1
-0.1589,0.0143,0.9282,14.7705,-3.0518,-38.2690,0,0,0,1
-0.1061,-0.0356,0.9618,8.6060,3.6011,-34.5459,0,1,0,0
-0.1085,-0.0388,0.9380,-4.2114,3.0518,-32.6538,0,1,0,0
-0.0443,-0.0361,0.9178,-4.0894,-0.9155,-34.2407,0,1,0,0
0.0237,-0.0897,0.9397,-12.4512,-4.1504,-25.8179,0,1,0,0
0.0029,0.2806,1.2250,6.8359,-5.1270,0.5493,0,0,0,1
0.0718,-0.1458,0.9772,14.2822,42.0532,-15.1978,0,1,0,0
0.1444,-0.0037,0.7922,6.1035,-1.0376,-14.9536,0,1,0,0
0.0142,-0.0887,1.0974,11.2915,7.5684,8.7891,0,1,0,0
0.0327,-0.0264,0.9108,-10.8032,-11.5356,-9.0942,0,1,0,0
-0.0645,-0.0715,1.0248,3.6621,2.1362,3.4790,0,1,0,0
0.0190,-0.0353,0.9657,-3.0518,-0.2441,-1.2207,0,1,0,0
-0.0148,-0.0568,1.0103,2.1362,-0.2441,0.0000,0,1,0,0
-0.0016,-0.0392,0.9503,-2.8076,0.3052,0.9155,0,1,0,0
-0.0272,-0.0553,1.0006,0.0000,1.1597,1.4038,0,1,0,0
-0.0077,-0.0352,0.9623,-1.1597,1.8311,1.2207,0,1,0,0
0.0281,-0.0630,0.9907,-0.0610,-0.1831,-1.8311,0,1,0,0
-0.0135,-0.0532,0.9791,-1.6479,-1.7090,2.5024,0,1,0,0
-0.0243,-0.0509,0.9839,-3.3569,-1.6479,-0.4272,0,1,0,0
0.0326,-0.0521,0.9752,-2.6245,-0.6714,-0.3662,0,1,0,0
0.0029,-0.0439,0.9696,-3.3569,-4.4556,1.0376,0,1,0,0
0.0155,-0.0387,0.9713,-2.6245,-4.8828,1.0376,0,1,0,0
0.0743,-0.0513,0.9600,-6.1035,-5.4932,4.9438,0,1,0,0
0.0889,-0.0469,0.9462,-5.5542,-7.5073,17.7612,0,1,0,0
0.0753,-0.0636,0.9519,-11.5967,-21.6064,17.7002,0,1,0,0
0.0369,-0.0587,0.9778,-18.9209,-13.0615,39.3677,0,1,0,0
-0.1594,0.0118,0.8799,-23.9868,-15.9302,65.3687,0,0,0,1
-0.2039,0.0149,0.9795,1.0376,2.0752,50.4761,1,0,0,0
-0.3254,0.0012,1.0244,-7.8125,-11.9629,33.5083,1,0,0,0
-0.2656,0.0084,1.0475,-3.0518,-14.7705,1.0376,1,0,0,0
-0.1809,0.0131,1.0015,-0.1831,-0.1831,-1.7090,1,0,0,0
-0.1385,0.0128,0.9570,-4.3945,0.3662,0.9155,0,0,0,1
-0.1406,0.0243,0.9674,-2.3804,0.0610,0.3662,0,0,0,1
-0.1613,0.0308,0.9703,-3.3569,0.3662,2.0752,0,0,0,1
-0.1293,0.0232,0.9590,-1.4038,-0.6104,-0.6714,0,0,0,1
-0.1138,0.0081,0.9988,1.7090,-0.5493,-0.1831,0,0,0,1
-0.1411,0.0269,0.9812,-0.4272,0.2441,3.6011,0,0,0,1
-0.1318,0.0753,0.9677,-2.2583,-2.5024,-0.7324,0,0,0,1
-0.1100,0.1222,1.0607,0.7935,1.7090,-3.1128,0,0,0,1
-0.1758,0.1246,1.0490,8.1177,9.6436,-13.8550,0,0,0,1
-0.1498,0.0936,1.0400,7.2632,6.7749,-29.4800,0,0,0,1
-0.1667,0.0878,1.0061,13.0005,20.8740,-32.2266,0,0,0,1
0.0052,0.0360,0.8951,28.8086,9.7046,-47.6685,0,1,0,0
-0.1844,-0.0170,0.8323,34.0576,-3.1128,-48.1567,1,0,0,0
-0.0299,-0.2516,1.0006,43.0298,0.2441,-47.0581,0,0,1,0
-0.1475,-0.2352,0.9097,32.9590,-7.1411,-28.5034,0,0,1,0
-0.1647,-0.2433,0.9081,23.9258,-1.4648,-16.1743,0,0,1,0
-0.0247,-0.3345,1.0494,17.0288,0.1831,-10.8032,0,0,1,0
-0.1187,-0.2810,0.9264,2.1973,-2.2583,-10.8032,0,0,1,0
-0.1147,-0.4219,0.9360,8.3618,3.6011,-1.7700,0,0,1,0
-0.1757,-0.4712,0.8955,1.9531,0.6104,1.8921,0,0,1,0
-0.0781,-0.4034,0.9338,-4.1504,-7.6294,-1.5869,0,0,1,0
-0.0875,-0.3157,0.9688,-12.0239,-11.1084,5.7983,0,0,1,0
-0.2360,-0.3776,0.9633,-15.3809,-0.5493,9.3384,0,0,1,0
-0.1721,-0.4961,1.0345,-24.5972,7.6904,6.7139,0,0,1,0
-0.1846,-0.2343,0.8907,-36.0718,14.6484,37.5366,0,0,1,0
-0.1862,-0.0372,0.8341,-21.6064,29.0527,31.1890,1,0,0,0
-0.0730,0.0917,0.7249,-1.4648,2.3193,0.4272,0,0,0,1
-0.0035,-0.0492,0.9089,-39.5508,-30.8228,27.7100,0,1,0,0
0.0021,-0.1410,1.0553,-56.5186,-49.9878,22.7051,0,1,0,0
-0.1979,0.6730,1.5040,69.8853,15.9302,30.3345,0,0,0,1
-0.1118,-0.1747,0.7692,-64.1479,6.2866,27.3438,0,0,1,0
-0.1726,0.0417,0.6541,-19.4702,-16.6016,-11.5356,0,0,0,1
-0.1124,0.1156,1.1620,29.6631,-1.7090,-3.7231,0,0,0,1
-0.1099,-0.1118,0.9827,-23.6206,-10.9253,-4.6387,0,0,1,0
-0.2317,0.0323,0.9325,7.7515,0.9155,-1.4648,1,0,0,0
-0.0950,-0.0880,1.0071,-11.1084,0.0610,-7.2021,0,0,1,0
-0.1677,0.0273,0.9330,4.6387,1.4038,4.0894,0,0,0,1
-0.1453,-0.0396,1.0087,-7.2021,-5.9204,-2.5024,0,0,1,0
-0.1927,-0.0018,0.9728,-1.2207,0.2441,2.8687,1,0,0,0
-0.1296,0.0001,0.9486,-2.2583,-0.6714,-2.7466,0,0,0,1
-0.1431,-0.0247,0.9768,0.4883,0.7324,-1.4648,1,0,0,0
-0.1249,-0.0109,0.9662,-2.5635,-2.2583,-1.4648,0,1,0,0
-0.1830,-0.0062,0.9700,0.7324,0.7935,-1.3428,1,0,0,0
-0.1431,-0.0302,0.9795,1.8311,-5.4321,-6.6528,0,0,1,0
-0.1415,-0.0358,0.9762,-4.0283,-3.0518,-1.8921,0,0,1,0
-0.1434,-0.0447,0.9713,-4.2114,-0.7324,6.1035,0,0,1,0
-0.1228,-0.0797,0.9708,-3.9062,0.7324,9.1553,0,0,1,0
-0.0950,-0.1909,0.9976,-1.9531,2.6245,20.7520,0,0,1,0
-0.0413,-0.2738,1.0203,-15.5029,3.7842,52.9175,0,0,1,0
-0.0784,-0.2733,1.0212,-27.1606,11.1084,95.9473,0,0,1,0
-0.1271,-0.1710,1.0548,-53.4058,10.2539,109.1919,0,0,1,0
-0.1548,0.0198,0.8158,-73.4863,-0.5493,95.6421,0,0,0,1
-0.3441,0.1097,0.8159,-60.9131,-15.9912,111.3281,1,0,0,0
-0.3934,0.2587,0.8115,-57.0068,-9.5215,116.3940,0,0,0,1
-0.4276,0.4004,0.8235,-36.1328,-2.5024,126.1597,0,0,0,1
-0.7946,0.5160,0.7726,-34.7900,-13.1836,68.1152,1,0,0,0
-0.6429,0.3893,0.7635,-5.7983,-22.0947,-19.4702,1,0,0,0
-0.4277,0.2709,0.8522,11.7798,-9.9487,-29.4800,0,0,0,1
-0.3121,0.1804,0.9313,9.1553,-2.5024,-20.8130,0,0,0,1
-0.4280,0.2396,0.9146,1.5869,1.4648,-11.0474,1,0,0,0
-0.5043,0.3342,0.8484,4.6387,0.7324,-36.7432,1,0,0,0
-0.3890,0.2903,0.8701,9.4604,6.8970,-43.4570,0,0,0,1
-0.4797,0.4828,0.7087,-0.3052,-10.8032,-45.8374,0,0,0,1
-0.3356,0.3820,0.8099,22.0337,0.2441,-67.7490,0,0,0,1
-0.3542,0.3060,0.8276,33.9355,0.3662,-80.3833,0,0,0,1
-0.3003,0.2567,0.8284,29.0527,-2.8076,-73.9136,0,0,0,1
-0.3669,0.1803,0.8545,37.1704,-12.4512,-88.4399,1,0,0,0
-0.3600,0.1506,0.8246,29.8462,-36.9263,-104.1260,1,0,0,0
-0.1699,0.0577,0.8743,51.3306,-21.7896,-106.6284,0,0,0,1
0.0194,-0.1782,0.9342,61.4624,10.0708,-48.2788,0,0,1,0
-0.1241,-0.3071,1.0828,60.3027,16.9678,-6.8970,0,0,1,0
-0.1066,-0.2673,1.2363,17.7612,-5.1880,-13.6719,0,0,1,0
-0.1329,-0.0845,0.9707,-15.0146,-1.0376,6.9580,0,0,1,0
-0.1919,0.0889,0.9001,-9.3384,-6.1646,4.1504,0,0,0,1
-0.2687,0.0751,0.9386,1.0376,-2.0752,-1.0376,1,0,0,0
-0.1752,-0.0271,1.0004,4.6997,0.8545,-7.9346,1,0,0,0
-0.1522,-0.0356,0.9789,-0.6714,0.6714,-1.2817,1,0,0,0
-0.2056,0.0206,0.9448,-6.0425,-3.4790,1.6479,1,0,0,0
-0.2300,0.0428,0.9523,-2.8687,-2.1973,-1.0376,1,0,0,0
-0.1960,0.0182,0.9657,0.1221,0.0610,-3.0518,1,0,0,0
-0.2080,-0.0117,0.9928,-1.7700,1.2817,0.7324,1,0,0,0
-0.1903,0.0199,0.9563,-3.6011,0.2441,-2.9907,1,0,0,0
-0.1631,0.0322,0.9235,-1.1597,-1.2817,1.2817,0,0,0,1
-0.2299,0.0162,0.9779,-2.4414,-4.5776,-1.8311,1,0,0,0
-0.2109,0.0048,0.9862,-0.8545,0.4883,-0.7324,1,0,0,0
-0.1656,0.0144,0.9456,-1.1597,-1.0376,-1.4648,0,0,0,1
-0.2086,0.0219,0.9684,-0.7324,-1.0986,0.6714,1,0,0,0
-0.2318,0.0264,0.9633,-1.6479,-0.1221,1.1597,1,0,0,0
-0.1815,0.0259,0.9473,-2.3193,-0.6714,0.1221,0,0,0,1
-0.1997,0.0114,0.9727,-2.3193,-0.9155,1.8311,1,0,0,0
-0.1884,-0.0160,1.0066,-0.9766,0.4883,0.7324,1,0,0,0
-0.1881,-0.0920,1.1774,-8.7891,0.9766,-5.6152,0,0,1,0
-0.1160,-0.0889,1.2610,-12.9395,28.1372,14.5874,0,0,1,0
-0.1376,-0.0247,1.2897,3.0518,89.7827,50.8423,0,0,1,0
-0.0540,0.0061,1.2944,-15.8081,117.3096,66.4063,0,1,0,0
-0.0046,0.2361,0.8894,-54.3823,97.9614,46.3867,0,0,0,1
0.2433,0.2662,0.6958,-34.7290,76.2329,22.7661,0,1,0,0
0.2385,0.2347,0.6031,-15.6250,64.8804,35.2173,0,1,0,0
0.3219,0.2178,0.5686,14.8315,54.8706,32.9590,0,1,0,0
0.3417,0.2053,0.6179,15.6250,21.0571,15.9302,0,1,0,0
0.3959,0.1683,0.6807,5.2490,-10.9863,-9.9487,0,1,0,0
0.4451,0.1652,0.7864,-8.3618,-50.4761,-34.4849,0,1,0,0
0.3011,0.2052,0.7917,-3.6621,-49.4385,-25.5127,0,1,0,0
0.1956,0.1676,0.7671,8.3618,-43.0908,-24.8413,0,1,0,0
0.2292,-0.0114,0.9360,14.7095,-45.2271,-33.9966,0,1,0,0
0.2933,0.0597,0.9797,-18.4937,-51.1475,-12.8174,0,1,0,0
0.0697,0.2383,0.8627,-9.3994,-48.6450,-5.8594,0,0,0,1
0.0942,0.2112,0.8206,-8.6670,-63.5376,-13.2446,0,0,0,1
0.0649,0.1478,0.8130,10.1929,-78.3081,-22.1558,0,1,0,0
-0.1106,0.1626,0.8063,28.5034,-95.4590,-26.1841,0,0,0,1
-0.2861,0.0320,1.1960,8.7891,-113.0981,19.2871,1,0,0,0
-0.6107,-0.2349,1.9175,23.5596,49.4385,40.1611,1,0,0,0
-0.5870,-0.1128,0.6729,-14.9536,24.0479,-6.4087,1,0,0,0
0.0137,0.0695,0.7921,3.1128,-7.5684,-7.6904,0,1,0,0
-0.2581,0.0117,1.1567,6.5918,0.7935,17.1509,1,0,0,0
-0.4312,0.0967,0.8142,-17.9443,-10.5591,5.7373,1,0,0,0
-0.3383,0.1135,0.9669,6.7749,5.0049,0.3662,1,0,0,0
-0.2848,0.0759,0.8849,-4.3945,2.1362,-4.5166,1,0,0,0
-0.2474,0.0411,0.9498,7.9346,4.2114,-2.8076,1,0,0,0
-0.2601,0.0446,0.9215,-11.0474,-4.9438,2.0752,1,0,0,0
-0.3138,0.0404,0.9644,-2.0142,0.0610,3.3569,1,0,0,0
-0.2979,0.0723,0.9395,-5.0659,-0.0610,-0.3662,1,0,0,0
-0.2808,0.0555,0.9432,0.2441,1.4648,-1.1597,1,0,0,0
-0.2706,0.0536,0.9393,0.9155,0.7935,1.1597,1,0,0,0
-0.3018,0.0646,0.9359,-1.9531,-2.8687,-1.5869,1,0,0,0
-0.3094,0.0411,0.9554,-2.9297,1.1597,1.0376,1,0,0,0
-0.2772,0.0529,0.9418,-3.3569,0.5493,-0.7935,1,0,0,0
-0.2725,0.0653,0.9290,-3.1128,1.2207,1.8311,1,0,0,0
-0.2842,0.0548,0.9424,-2.9297,-0.9766,1.6479,1,0,0,0
-0.2876,0.0623,0.9384,-1.4648,1.2207,1.2817,1,0,0,0
-0.2878,0.0604,0.9441,-3.1128,0.6714,2.1973,1,0,0,0
-0.2982,0.0784,0.9343,-2.3193,0.9766,-0.0610,1,0,0,0
-0.2646,0.0605,0.9325,-0.2441,1.0986,-0.4272,1,0,0,0
-0.2415,0.0325,0.9500,-0.8545,-1.7700,1.2207,1,0,0,0
-0.3009,0.0471,0.9590,-7.3853,-6.4697,2.9297,1,0,0,0
-0.3103,0.0535,0.9784,-2.1362,1.6479,6.4087,1,0,0,0
-0.2948,0.0844,0.9298,-6.1646,1.2817,1.3428,1,0,0,0
-0.2740,0.0801,0.9358,-1.5259,1.5869,1.6479,1,0,0,0
-0.2886,0.0911,0.9226,-3.6621,-0.9155,0.3662,1,0,0,0
-0.2926,0.0784,0.9421,-0.6714,-0.7935,-1.2817,1,0,0,0
-0.2643,0.0704,0.9214,0.0000,-2.9297,-2.4414,1,0,0,0
-0.2861,0.0493,0.9668,-0.8545,-1.5259,3.7842,1,0,0,0
-0.2953,0.0636,0.9546,-3.2959,0.6104,0.8545,1,0,0,0
-0.2782,0.0688,0.9375,-2.1973,1.0986,0.7324,1,0,0,0
-0.2858,0.0771,0.9304,-4.3945,0.4883,3.6621,1,0,0,0
-0.2700,0.0775,0.9374,-3.9062,-0.7935,3.3569,1,0,0,0
-0.2924,0.0757,0.9501,-2.3193,-0.5493,2.4414,1,0,0,0
-0.3031,0.0836,0.9417,-2.6855,1.2817,2.5024,1,0,0,0
-0.2653,0.0774,0.9287,-3.4790,-1.0986,0.3052,1,0,0,0
-0.2848,0.0665,0.9520,-2.9907,-0.2441,5.0049,1,0,0,0
-0.2852,0.0774,0.9392,-2.1362,0.0610,2.2583,1,0,0,0
-0.2848,0.0758,0.9452,-2.8076,0.9155,4.1504,1,0,0,0
-0.2881,0.0846,0.9426,-3.7842,1.9531,6.1035,1,0,0,0
-0.2866,0.0740,0.9532,-3.5400,1.1597,2.8687,1,0,0,0
-0.2845,0.0945,0.9337,-3.7231,1.8311,5.7983,1,0,0,0
-0.2948,0.1145,0.9199,-4.5776,-0.9155,1.4038,1,0,0,0
-0.2933,0.1207,0.9325,-1.8311,-0.5493,-0.3052,1,0,0,0
-0.3030,0.1594,0.8966,2.6245,-1.5259,-5.1270,0,0,0,1
-0.3596,0.2086,0.8953,6.4697,-8.9722,-20.3247,0,0,0,1
-0.4274,0.2717,0.8784,22.3999,-1.5259,-36.6821,0,0,0,1
-0.2266,0.0602,0.9955,41.8701,9.1553,-54.1992,1,0,0,0
-0.1300,-0.0116,0.9561,46.4478,16.7236,-38.6963,0,0,0,1
-0.1908,-0.0740,0.9058,62.6221,15.9302,-26.6113,1,0,0,0
-0.3258,-0.1819,0.9456,55.5420,17.6392,-34.7290,1,0,0,0
-0.2488,-0.2257,0.8752,49.4995,10.7422,-40.2832,0,0,1,0
-0.1598,-0.2572,0.8195,48.1567,10.3760,-34.3628,0,0,1,0
-0.2015,-0.3925,0.8796,53.4058,11.5356,-17.1509,0,0,1,0
-0.2062,-0.5974,1.0159,30.5786,5.7983,-19.0430,0,0,1,0
-0.1699,-0.6189,0.9767,10.6201,6.2866,-8.4839,0,0,1,0
-0.1250,-0.5178,0.9125,-8.1787,-1.6479,-0.3662,0,0,1,0
-0.1750,-0.4159,0.8903,-19.0430,-5.2490,7.0801,0,0,1,0
-0.1818,-0.4410,0.9651,-23.7427,-5.3711,10.1318,0,0,1,0
-0.1855,-0.4601,0.9641,-36.3770,-4.8218,15.3198,0,0,1,0
-0.1960,-0.4857,0.9329,-62.3169,-15.0146,24.9634,0,0,1,0
-0.2292,-0.2748,0.8091,-68.4814,-9.8877,49.0112,0,0,1,0
-0.1927,-0.0996,0.8250,-70.9839,-22.4609,48.5840,0,0,1,0
-0.1566,0.0822,0.8165,-54.8706,-26.3062,59.2651,0,0,0,1
-0.4956,0.3966,1.0446,5.7373,-0.5493,63.0493,0,0,0,1
-0.3752,0.0093,0.8813,-13.3057,-3.6011,-1.7700,1,0,0,0
-0.3237,0.0942,0.8997,10.8643,-0.8545,-3.7231,1,0,0,0
-0.3114,-0.1436,1.0299,18.2495,14.2822,-9.3384,1,0,0,0
-0.2114,-0.0658,0.9125,5.3101,3.5400,-7.8125,1,0,0,0
-0.2145,-0.1472,0.9928,7.2021,4.3945,-3.6621,0,0,1,0
-0.2354,-0.0884,0.9414,-5.3101,-3.6621,-0.5493,1,0,0,0
-0.2798,-0.0790,0.9644,-4.8828,-2.5635,-1.1597,1,0,0,0
-0.2556,-0.0289,0.9259,2.3804,6.0425,5.1880,1,0,0,0
-0.2194,-0.0780,0.9508,3.9673,10.8032,6.2866,1,0,0,0
-0.2493,-0.1001,0.9670,2.6245,0.1831,-2.8076,1,0,0,0
-0.2112,-0.1345,0.9944,-2.6855,0.0610,-2.8076,0,0,1,0
-0.2080,-0.0961,0.9457,-5.9204,-0.8545,0.4272,0,0,1,0
-0.2332,-0.0775,0.9636,-5.1880,-2.0752,2.3193,1,0,0,0
-0.2360,-0.0531,0.9442,-1.5259,0.3052,2.1973,1,0,0,0
-0.2316,-0.0728,0.9500,1.4038,2.9297,3.5400,1,0,0,0
-0.2336,-0.0980,0.9718,-1.6479,-1.8311,-3.0518,1,0,0,0
-0.2205,-0.0852,0.9591,-2.8687,-1.3428,0.3052,1,0,0,0
-0.2329,-0.0730,0.9578,-2.6855,-0.7935,3.8452,1,0,0,0
-0.2511,-0.0620,0.9535,-3.3569,-1.7700,1.2817,1,0,0,0
-0.2499,-0.0785,0.9674,-1.4648,0.3662,-0.1221,1,0,0,0
-0.2180,-0.0798,0.9597,-2.6855,-0.1221,-2.8076,1,0,0,0
-0.2084,-0.0856,0.9663,-1.4648,0.4883,1.7700,1,0,0,0
-0.2416,-0.0687,0.9557,-0.3662,0.3662,1.4038,1,0,0,0
-0.2229,-0.0736,0.9607,-2.2583,-0.6714,-1.1597,1,0,0,0
-0.2336,-0.0786,0.9602,-1.5259,0.7324,-0.0610,1,0,0,0
-0.2228,-0.0745,0.9435,-4.0283,-1.0986,0.9155,1,0,0,0
-0.2288,-0.1003,0.9772,-2.5635,-0.3662,1.4038,1,0,0,0
-0.1882,-0.1115,0.9778,-7.3853,-1.0986,5.0659,0,0,1,0
-0.2037,-0.0970,0.9780,-8.3618,0.7324,10.7422,0,0,1,0
-0.2119,-0.0892,0.9768,-10.8643,2.9907,16.0522,1,0,0,0
-0.1906,-0.1097,0.9900,-13.6719,3.9673,23.3765,0,0,1,0
-0.1379,-0.1454,0.9771,-18.3105,4.1504,32.8369,0,0,1,0
-0.0767,-0.2167,0.9967,-26.7334,2.6245,52.0630,0,0,1,0
-0.1775,-0.1976,0.9890,-32.7759,2.8076,71.4722,0,0,1,0
-0.3159,-0.0862,0.9827,-44.6167,6.2866,85.7544,1,0,0,0
-0.2522,-0.0304,0.9662,-42.7856,12.9395,83.8623,1,0,0,0
-0.2983,0.1161,0.8644,-45.6543,10.3149,91.5527,1,0,0,0
-0.3872,0.2935,0.8502,-51.6968,-4.8828,87.5854,0,0,0,1
-0.5674,0.4199,0.7649,-41.7480,-8.3008,61.2793,0,0,0,1
-0.4583,0.4125,0.7947,-8.7891,-3.9062,9.0332,0,0,0,1
-0.3469,0.2863,0.8988,2.8687,-6.5918,-13.1836,0,0,0,1
-0.2933,0.1964,0.9164,6.5918,-7.3853,-20.8130,0,0,0,1
-0.2855,0.1853,0.9382,3.8452,-3.2959,-14.3433,0,0,0,1
-0.3846,0.2770,0.9048,3.1128,-2.9297,-16.7847,0,0,0,1
-0.4609,0.3260,0.8678,8.6060,-0.9155,-39.9780,0,0,0,1
-0.3104,0.2329,0.8732,20.8740,-0.3052,-64.3921,0,0,0,1
-0.3103,0.2192,0.8652,23.7427,1.0376,-68.0542,0,0,0,1
-0.2091,0.1709,0.8739,25.3906,8.0566,-58.5327,0,0,0,1
-0.1115,0.0548,0.9536,22.1558,0.6714,-51.6968,0,0,0,1
-0.0973,0.0776,0.9536,14.6484,-12.5732,-47.5464,0,0,0,1
-0.2396,0.1210,0.9191,26.5503,-6.4087,-43.1519,0,0,0,1
-0.2595,0.1260,0.9275,12.0850,-15.5029,-40.4663,0,0,0,1
-0.2316,0.0975,0.9288,19.9585,-7.7515,-43.9453,0,0,0,1
-0.1298,-0.0414,0.9985,20.5688,-9.7656,-49.3164,0,0,1,0
-0.2074,-0.0369,0.9790,14.5264,-7.1411,-31.9214,1,0,0,0
-0.1715,-0.0725,1.0236,5.7983,-6.8359,-27.4658,0,0,1,0
-0.1667,-0.0358,0.9930,2.7466,1.8311,-2.5024,1,0,0,0
-0.1997,0.0215,0.9750,-4.7607,-2.2583,1.5869,1,0,0,0
-0.2369,0.0624,0.9437,-1.8311,0.0000,2.4414,1,0,0,0
-0.2300,0.0569,0.9656,-0.4883,-0.0610,0.4883,1,0,0,0
-0.2267,0.0232,0.9912,1.5259,-1.7090,-3.1128,1,0,0,0
-0.2117,0.0228,0.9678,-2.1973,-0.6104,-0.5493,1,0,0,0
-0.2112,0.0381,0.9532,-2.6855,-2.3804,0.1831,1,0,0,0
-0.2341,0.0691,0.9421,-4.2725,-1.5259,1.4648,1,0,0,0
-0.2137,0.0613,0.9427,-1.8311,-0.8545,-0.4883,0,0,0,1
-0.2336,0.0405,0.9586,-1.8921,-2.3804,-2.0752,1,0,0,0
-0.2434,0.0461,0.9557,-2.6855,-0.5493,1.1597,1,0,0,0
-0.2377,0.0630,0.9316,0.6104,-7.0801,-4.8218,1,0,0,0
-0.2437,0.0530,0.9636,2.4414,-1.2207,-1.3428,1,0,0,0
-0.2460,0.0299,0.9708,-0.9155,0.6714,1.2207,1,0,0,0
-0.2168,0.0355,0.9509,-2.5635,-0.1831,-1.2817,1,0,0,0
-0.2499,0.0599,0.9656,-0.5493,-0.6104,-0.7324,1,0,0,0
-0.2358,0.0419,0.9614,-1.8921,0.9766,1.2207,1,0,0,0
-0.2195,0.0365,0.9595,-1.8311,-1.2207,-1.6479,1,0,0,0
-0.2393,0.0355,0.9772,-0.6714,-0.0610,0.4272,1,0,0,0
-0.2264,0.0475,0.9539,-1.7700,0.1831,0.3052,1,0,0,0
-0.2325,0.0557,0.9424,-2.9297,-0.1831,0.0610,1,0,0,0
-0.2384,0.0482,0.9583,-2.1362,-0.7935,-0.2441,1,0,0,0
-0.2302,0.0425,0.9559,-2.5635,0.6104,1.3428,1,0,0,0
-0.2290,0.0530,0.9523,-1.4038,-0.3052,-0.9766,1,0,0,0
-0.2345,0.0551,0.9519,-2.2583,0.3662,1.0376,1,0,0,0
-0.2374,0.0431,0.9653,-0.7935,-0.1221,-0.4883,1,0,0,0
-0.2292,0.0565,0.9430,-1.6479,-0.5493,-0.0610,1,0,0,0
-0.2274,0.0444,0.9663,-1.4648,0.1221,0.5493,1,0,0,0
-0.2231,0.0619,0.9398,-2.0752,-0.9766,-0.1831,1,0,0,0
-0.2390,0.0634,0.9504,-2.5635,0.2441,0.8545,1,0,0,0
-0.2216,0.0432,0.9631,-1.2207,-1.0376,-1.6479,1,0,0,0
-0.2281,0.0479,0.9650,-1.0376,-0.5493,-0.4883,1,0,0,0
-0.2371,0.0627,0.9465,-2.0142,-0.9766,-0.4272,1,0,0,0
-0.2290,0.0560,0.9567,-0.7935,-0.7935,-0.9155,1,0,0,0
-0.2382,0.0520,0.9595,-1.2207,0.6104,0.2441,1,0,0,0
-0.2271,0.0547,0.9541,-1.6479,0.1831,-1.1597,1,0,0,0
-0.2294,0.0526,0.9646,-1.3428,1.5869,-0.3662,1,0,0,0
-0.2047,0.0479,0.9674,-1.1597,0.6714,0.1221,0,0,0,1
-0.2195,0.0482,0.9734,-1.0986,0.4272,-0.7935,1,0,0,0
-0.2268,0.0516,0.9720,-2.9297,1.5259,1.1597,1,0,0,0
-0.2222,0.0366,0.9734,-4.6387,1.8311,-1.5869,1,0,0,0
-0.2223,0.0764,0.9192,-4.8218,4.0894,3.2349,0,0,0,1
-0.1934,0.0804,0.9509,-3.7842,1.2817,0.7935,0,0,0,1
-0.2010,0.0791,0.9761,-0.7324,1.8921,-0.0610,0,0,0,1
-0.1906,0.0319,1.0192,-3.2349,3.1128,0.3052,1,0,0,0
-0.1652,0.0448,1.0636,-5.8594,9.3994,5.5542,0,0,0,1
-0.1232,0.0651,1.1344,1.3428,27.8320,5.1880,0,0,0,1
-0.0757,0.1025,1.1417,9.1553,48.9502,20.8130,0,0,0,1
0.0021,0.0216,1.0912,8.1177,59.9976,33.5693,0,1,0,0
-0.0420,0.0112,1.0562,-6.3477,53.3447,30.3955,0,1,0,0
0.0449,0.0990,0.9370,-17.0898,43.2739,12.2681,0,1,0,0
0.1554,0.1536,0.8398,-17.7002,33.2642,16.3574,0,1,0,0
0.1012,0.1078,0.8568,-7.3853,37.7197,27.8931,0,1,0,0
0.1384,0.1013,0.8063,-14.8926,17.1509,5.4321,0,1,0,0
0.1490,0.1211,0.7812,-5.6763,17.8833,12.8784,0,1,0,0
0.2079,0.1410,0.7583,0.0000,5.5542,-6.7749,0,1,0,0
0.2426,0.1448,0.7545,6.1646,-7.6904,-10.3760,0,1,0,0
0.2672,0.1018,0.8223,14.4043,-26.9165,-23.0713,0,1,0,0
0.1389,0.1057,0.8934,12.0850,-31.6772,-9.7046,0,1,0,0
0.0748,0.0150,0.9572,15.4419,-27.5269,-20.0806,0,1,0,0
-0.0149,0.1053,0.9139,11.5356,-21.0571,-14.9536,0,0,0,1
0.0432,-0.0894,1.0520,15.1978,-16.8457,-28.2593,0,1,0,0
0.0874,-0.0188,0.9863,-6.6528,-26.7944,-26.4893,0,1,0,0
0.1016,0.0038,0.9329,-10.0708,-40.4663,-23.3154,0,1,0,0
0.0444,-0.0050,0.9897,-18.2495,-56.7627,-17.2119,0,1,0,0
-0.0837,0.0171,1.0402,-36.6821,-71.8384,-13.7329,0,1,0,0
-0.0969,0.2507,1.0422,-27.2827,-67.7490,-14.2822,0,0,0,1
-0.3129,-0.0227,1.3867,13.6719,11.7187,20.2637,1,0,0,0
-0.4211,0.1418,0.8126,-31.3110,2.8687,15.3809,1,0,0,0
-0.1963,0.1711,0.8101,5.9814,-1.2207,-7.2021,0,0,0,1
-0.2063,0.1293,1.0175,-2.1973,-2.6855,7.0190,0,0,0,1
-0.2733,0.1230,0.9390,-3.1128,-2.7466,-1.5869,0,0,0,1
-0.2645,0.1302,0.9419,-0.6714,0.6104,-1.4038,0,0,0,1
-0.2231,0.1682,0.9214,3.4180,1.0376,-3.2959,0,0,0,1
-0.2050,0.2247,0.8577,4.4556,-7.5684,-6.4697,0,0,0,1
-0.3446,0.2540,0.8214,21.3623,-10.4980,-12.5732,0,0,0,1
-0.3428,0.1190,0.9247,36.0718,-5.6763,-23.0713,1,0,0,0
-0.3407,0.0151,0.9247,45.8374,5.8594,-26.8555,1,0,0,0
-0.3634,-0.0204,0.8571,60.1196,24.2920,-18.7988,1,0,0,0
-0.1920,-0.2295,0.9319,52.3682,20.4468,-35.0952,0,0,1,0
-0.1766,-0.3317,0.9242,44.8608,21.4844,-17.4561,0,0,1,0
-0.0820,-0.4789,1.0750,28.5034,5.5542,-18.4937,0,0,1,0
-0.1057,-0.3888,0.9927,-1.9531,1.8311,0.4883,0,0,1,0
-0.1300,-0.3184,0.9493,-17.5171,-4.7607,9.8877,0,0,1,0
-0.1724,-0.3337,0.9968,-25.2075,-5.6763,14.4653,0,0,1,0
-0.1622,-0.3375,0.9423,-39.1235,-6.4087,27.7100,0,0,1,0
-0.1993,-0.2355,0.8645,-52.6733,-24.4751,32.7759,0,0,1,0
-0.2009,-0.0833,0.9045,-57.2510,-36.8042,40.0391,1,0,0,0
-0.3651,0.3092,1.0021,-28.0151,-14.2822,40.2832,0,0,0,1
-0.3466,0.0748,0.8741,-23.4375,2.1362,18.1274,1,0,0,0
-0.4272,0.1649,0.8785,-5.7373,-3.6011,2.7466,1,0,0,0
-0.2742,0.0189,0.9360,9.0332,7.8735,-10.3149,1,0,0,0
-0.2452,-0.0046,0.9415,3.2959,2.1362,-3.7842,1,0,0,0
-0.2307,-0.0568,0.9769,2.9907,-0.8545,-3.3569,1,0,0,0
-0.2800,-0.0066,0.9536,-2.8687,-1.0986,1.0376,1,0,0,0
-0.2792,0.0079,0.9469,-2.9907,-0.4883,0.0000,1,0,0,0
-0.2764,0.0172,0.9315,-2.0752,1.0376,0.3052,1,0,0,0
-0.2457,-0.0082,0.9597,-1.5869,-1.5869,0.2441,1,0,0,0
-0.2194,-0.0192,0.9974,0.1221,0.0000,-0.9766,1,0,0,0
-0.0582,-0.0170,0.9746,0.6714,0.9766,1.8921,0,1,0,0
-0.1107,0.0031,0.9856,12.8784,-4.3335,20.6299,0,1,0,0
-0.0911,-0.0238,0.9967,13.9771,-20.2637,9.8267,0,1,0,0
-0.1498,-0.0094,0.7948,13.8550,-34.0576,16.9678,1,0,0,0
-0.3519,-0.1156,0.8350,25.8179,-34.2407,38.4521,1,0,0,0
-0.5798,-0.1702,0.8229,-3.9673,-51.8188,35.2173,1,0,0,0
-0.7887,-0.2778,0.8649,1.4038,-42.9688,9.3384,1,0,0,0
-0.9248,-0.2010,0.8219,3.2349,13.6719,13.9160,1,0,0,0
-0.5817,-0.1582,0.8218,-7.0801,1.6479,-27.2827,1,0,0,0
-0.4321,-0.1340,0.8083,-0.0610,7.1411,-15.0146,1,0,0,0
-0.6172,-0.1487,0.8290,-14.0381,2.6855,-18.6157,1,0,0,0
-0.7307,-0.1051,0.8186,-12.1460,3.3569,-32.8979,1,0,0,0
-0.4922,-0.1140,0.8605,2.6855,31.1279,-29.2969,1,0,0,0
-0.3860,-0.1191,0.9082,-11.3525,50.2319,-3.9062,1,0,0,0
-0.1913,-0.0505,0.8466,-24.3530,26.3062,-20.1416,1,0,0,0
-0.1560,0.0955,0.6650,-47.4243,-24.5361,-19.9585,0,0,0,1
-0.1434,0.5387,1.2185,33.5083,-26.1841,-1.5259,0,0,0,1
-0.2542,-0.2858,1.0737,-3.2349,19.9585,-14.7705,0,0,1,0
-0.3424,-0.0088,0.7745,0.3052,-3.2349,11.8408,1,0,0,0
-0.4221,0.0299,1.0835,4.8828,-3.7842,1.7090,1,0,0,0
-0.3953,0.0712,0.7812,-13.0615,-2.1362,3.2349,1,0,0,0
-0.4083,0.0391,0.9655,5.2490,3.2959,-1.4038,1,0,0,0
-0.3728,0.0609,0.8342,-6.7139,-0.3052,0.6104,1,0,0,0
-0.3435,-0.0071,0.9478,-0.1831,-2.8076,-1.0986,1,0,0,0
-0.4071,0.0249,0.9269,-2.8076,-1.6479,1.9531,1,0,0,0
-0.4005,0.0291,0.9185,-3.1738,1.5259,-1.2817,1,0,0,0
-0.3710,0.0344,0.8992,-2.8687,1.3428,-0.6104,1,0,0,0
-0.3547,0.0343,0.9088,-0.9766,-0.1221,0.3662,1,0,0,0
-0.3986,0.0299,0.9216,-1.6479,0.2441,-0.0610,1,0,0,0
-0.3888,0.0406,0.9097,-3.1738,-0.0610,-1.4648,1,0,0,0
-0.3826,0.0237,0.9377,-2.0142,1.8921,-1.0376,1,0,0,0
-0.3951,0.0276,0.9193,-2.7466,2.4414,-5.0049,1,0,0,0
-0.4385,-0.0411,0.9927,-0.8545,7.9346,-11.4136,1,0,0,0
-0.4872,-0.0388,0.9845,-7.6904,4.0283,-37.9028,1,0,0,0
-0.4215,-0.0146,0.9993,-8.7280,21.4233,-35.0952,1,0,0,0
-0.3768,0.0627,0.9460,-17.2119,25.8789,-49.6216,1,0,0,0
-0.2947,0.1368,0.9292,-40.9546,27.5879,-84.9609,0,0,0,1
-0.0935,0.2433,0.8616,-53.0396,16.7847,-111.4502,0,0,0,1
-0.0232,0.4373,0.6997,-28.7476,20.5688,-96.4355,0,0,0,1
0.1257,0.4331,0.7238,42.1143,30.5786,-91.7358,0,0,0,1
0.3429,0.1965,1.0295,41.9312,22.4609,-43.5791,0,1,0,0
0.1864,0.2257,0.9060,-5.4321,-3.4180,7.6904,0,1,0,0
0.0793,0.2310,0.8966,-0.4883,-10.2539,-0.3052,0,0,0,1
0.0978,0.2427,0.9696,-12.0850,-11.9629,8.4839,0,0,0,1
0.1045,0.3097,0.9137,-8.7891,-12.3901,15.2588,0,0,0,1
0.1940,0.3395,0.8636,8.0566,-8.1177,64.6362,0,0,0,1
0.2452,0.3010,0.8491,28.5645,-29.8462,111.5723,0,1,0,0
-0.0963,0.0994,0.8350,45.7153,11.8408,195.1294,0,0,0,1
-0.2312,-0.0416,0.9814,45.4712,3.2349,110.1074,1,0,0,0
-0.1633,0.0100,0.8673,8.3618,25.6958,70.2515,0,0,0,1
-0.2001,-0.1648,1.0503,9.3384,-24.3530,32.8369,0,0,1,0
-0.4508,-0.1095,1.1370,1.5869,-45.8984,-18.8599,1,0,0,0
-0.3448,-0.1034,1.1187,7.2632,9.1553,-2.2583,1,0,0,0
-0.1621,-0.0579,0.9557,-12.5732,4.3945,-12.4512,0,0,1,0
-0.1573,0.0364,0.8949,-10.1929,-5.5542,0.0000,0,0,0,1
-0.2970,0.0232,0.9824,1.2817,-2.4414,2.1362,1,0,0,0
-0.2312,0.0016,0.9625,-0.3052,-0.6104,-5.2490,1,0,0,0
-0.2012,-0.0088,0.9567,-7.6904,-3.1738,-2.0142,1,0,0,0
-0.2253,0.0150,0.9613,-6.1646,-4.0283,-1.3428,1,0,0,0
-0.2378,0.0289,0.9340,-4.1504,-0.1831,1.5259,1,0,0,0
-0.2048,-0.0383,0.9689,-0.3662,3.6621,9.1553,1,0,0,0
-0.1552,-0.1318,1.0280,-5.9814,2.1973,14.6484,0,0,1,0
-0.1556,-0.0818,0.9968,-22.6440,4.5776,32.2266,0,0,1,0
-0.2189,-0.0311,0.9624,-24.2920,6.4697,49.6826,1,0,0,0
-0.1042,-0.1218,0.9999,-23.4985,11.2305,55.0537,0,0,1,0
-0.1368,-0.0986,0.9390,-32.3486,11.1084,86.3037,0,0,1,0
-0.2494,0.0438,0.8546,-19.4702,5.6152,94.1772,1,0,0,0
-0.2650,-0.0162,0.9941,-26.5503,9.2163,113.2813,1,0,0,0
-0.3795,0.1584,0.8649,-39.7949,-8.9111,82.1533,1,0,0,0
-0.4739,0.2656,0.8861,-28.6255,-10.1318,67.0166,1,0,0,0
-0.4996,0.3231,0.9242,-20.8130,-4.6997,33.3252,1,0,0,0
-0.4083,0.3099,0.8544,-6.1035,-2.2583,3.0518,0,0,0,1
-0.3760,0.2222,0.8936,1.7090,-6.9580,-19.5923,0,0,0,1
-0.3143,0.1580,0.9175,5.7373,-5.5542,-21.2402,0,0,0,1
-0.4146,0.2073,0.9268,0.9155,-8.5449,-28.6865,1,0,0,0
-0.4343,0.3055,0.8591,1.2207,-11.1694,-46.0205,0,0,0,1
-0.4561,0.3049,0.8160,17.3950,-5.0659,-65.0635,0,0,0,1
-0.3451,0.2261,0.8295,26.3062,0.6104,-69.5801,0,0,0,1
-0.3077,0.1178,0.8953,34.9121,-6.2256,-84.2285,1,0,0,0
-0.3208,0.1617,0.8064,41.3208,-14.4653,-92.0410,1,0,0,0
-0.2687,-0.0359,0.8831,52.8564,-19.9585,-99.4263,1,0,0,0
-0.1534,-0.1483,0.9746,36.3159,-13.1226,-63.3545,0,0,1,0
-0.1818,-0.2911,1.0790,46.6919,3.6011,-36.0107,0,0,1,0
-0.1664,-0.2931,1.1533,11.7798,7.9956,-1.2207,0,0,1,0
-0.2180,-0.0282,0.9368,-14.6484,0.0000,7.6904,1,0,0,0
-0.2662,0.0619,0.9176,-7.6904,-5.7373,-0.1831,1,0,0,0
-0.2931,0.0342,0.9408,-1.1597,-0.9766,2.6245,1,0,0,0
-0.2657,0.0004,0.9556,-1.1597,-2.9907,-4.0283,1,0,0,0
-0.2623,-0.0037,0.9576,-2.5635,0.2441,0.7935,1,0,0,0
-0.2601,0.0106,0.9469,-3.9062,-2.0142,0.1221,1,0,0,0
-0.2551,0.0099,0.9751,-3.1738,-0.8545,-0.5493,1,0,0,0
-0.2938,0.0817,0.9944,1.3428,0.0610,-3.6011,1,0,0,0
-0.2704,0.1458,0.9961,13.7939,14.0991,-11.8408,0,0,0,1
-0.2225,0.1820,0.8757,52.3682,18.9819,-40.2222,0,0,0,1
-0.1217,-0.0972,1.0684,49.2554,31.2500,-35.7666,0,0,1,0
-0.1890,-0.0237,0.8450,40.4663,-4.8218,-56.0303,1,0,0,0
-0.2493,-0.1493,0.8647,48.8281,-16.6626,-81.1157,0,0,1,0
-0.3041,-0.2114,0.8130,28.8696,-11.9019,-75.3174,0,0,1,0
-0.2527,-0.4004,0.8563,35.8887,-15.8081,-29.6631,0,0,1,0
-0.4526,-0.4308,0.9297,34.9731,17.0288,3.7842,0,0,1,0
-0.2975,-0.4426,0.9066,-0.7324,-5.9814,-18.2495,0,0,1,0
-0.2452,-0.4730,0.9521,3.0518,11.9019,-3.1128,0,0,1,0
-0.2391,-0.4059,0.8724,-6.9580,-2.7466,5.4321,0,0,1,0
-0.2543,-0.4126,0.8458,-2.0752,3.2959,25.2075,0,0,1,0
-0.3129,-0.4703,0.9510,-6.2256,3.4180,23.7427,0,0,1,0
-0.2836,-0.4113,0.8929,-32.9590,-5.7373,13.9160,0,0,1,0
-0.2329,-0.4135,0.9989,-50.9033,5.1270,34.4238,0,0,1,0
-0.1090,-0.3488,0.9641,-75.0122,10.9253,64.0259,0,0,1,0
-0.2853,-0.1265,0.8386,-83.0078,-8.9722,75.9277,1,0,0,0
-0.3734,0.0680,0.7646,-82.4585,-21.1792,58.3496,1,0,0,0
-0.3553,0.3179,0.6420,-67.0166,-33.9355,46.3257,0,0,0,1
-0.1597,0.8049,0.9541,-9.6436,-38.3911,38.3911,0,0,0,1
-0.5312,0.0756,1.3396,4.5776,87.6465,22.3389,1,0,0,0
-0.3599,-0.1304,0.8048,4.8828,10.4980,-20.7520,1,0,0,0
-0.0643,0.0516,0.8162,-1.5869,-21.6064,-21.7896,0,0,0,1
-0.1992,0.1051,1.1667,12.8784,-7.5684,-10.0708,0,0,0,1
-0.3513,0.0258,0.8827,-10.4980,-5.1880,11.7187,1,0,0,0
-0.3137,0.1716,0.9425,2.0752,-8.4229,-10.3149,0,0,0,1
-0.2661,0.0671,0.9485,2.1362,1.7090,-5.1880,1,0,0,0
-0.2595,0.1349,0.8894,3.1738,-4.1504,-6.2866,0,0,0,1
-0.2578,0.0383,0.9907,1.0986,-2.9907,-0.2441,1,0,0,0
-0.3179,0.0944,0.9335,-3.5400,-2.3193,2.1362,1,0,0,0
-0.2705,0.0685,0.9583,-2.8687,0.8545,-2.3804,1,0,0,0
-0.2609,0.0997,0.9208,-2.3193,2.1362,3.4790,1,0,0,0
-0.2898,0.0945,0.9573,-2.8687,-2.8687,1.5869,1,0,0,0
-0.3574,0.0853,1.0096,-5.6763,-2.8076,-3.0518,1,0,0,0
-0.3214,0.0964,1.0109,-18.2495,-4.6997,-8.4839,1,0,0,0
-0.2881,0.1414,1.0117,-5.2490,1.4038,-15.0757,0,0,0,1
-0.2406,0.0983,1.1660,10.6201,44.4946,11.3525,0,0,0,1
-0.1715,0.0596,1.1461,-2.9907,69.0308,18.1274,0,0,0,1
-0.1090,0.1615,0.9885,-15.4419,69.5801,13.1226,0,0,0,1
0.0277,0.2172,0.9730,-21.9727,50.1099,-12.5122,0,0,0,1
0.1752,0.2217,0.8624,-16.5405,17.5171,-42.2363,0,1,0,0
0.2000,0.1794,0.8572,2.8076,25.1465,20.0806,0,1,0,0
0.0437,0.0677,0.9004,-8.1177,26.0010,31.0059,0,1,0,0
-0.0735,0.1559,0.7681,-37.8418,15.4419,34.1797,0,0,0,1
0.0027,0.3052,0.7045,-12.0239,14.5874,10.1929,0,0,0,1
0.1323,0.3210,0.7766,-2.3193,8.8501,4.6997,0,0,0,1
0.1901,0.2714,0.8910,10.0708,0.3662,-3.1128,0,1,0,0
0.1616,0.2156,0.8853,1.9531,-14.4653,-12.5122,0,1,0,0
0.0518,0.2179,0.7848,1.9531,-13.7329,-3.2349,0,0,0,1
-0.0280,0.1920,0.8367,8.6060,-10.2539,-8.5449,0,0,0,1
0.1058,0.1803,0.9333,-0.1831,-21.4844,-24.9023,0,1,0,0
0.0867,0.2871,0.7861,-2.9297,-27.2217,-7.8125,0,0,0,1
0.1144,0.2321,0.7520,10.1318,-48.4619,-19.0430,0,0,0,1
0.2170,0.0021,1.0024,10.7422,-78.5522,-18.3716,0,1,0,0
-0.2076,0.1643,0.9269,-32.6538,-96.6187,18.0054,0,0,0,1
-0.2792,0.2703,0.9957,-37.1704,-104.1260,25.4517,0,0,0,1
-0.9120,0.0240,1.7782,46.2036,23.8647,14.2212,1,0,0,0
-0.6752,0.0868,0.5886,-14.5874,8.4839,-25.7568,1,0,0,0
-0.0416,0.2411,0.7253,7.9956,4.2114,1.7700,0,0,0,1
-0.2565,0.1146,1.1820,23.9258,11.0474,20.2637,0,0,0,1
-0.4431,0.2499,0.7534,-28.2593,-9.0942,16.1133,1,0,0,0
-0.4421,0.2397,0.9500,9.7046,4.1504,-2.8076,1,0,0,0
-0.2977,0.1758,0.8962,-3.4790,8.1787,-0.7935,0,0,0,1
-0.3127,0.2068,0.8723,4.5166,6.9580,-1.4648,0,0,0,1
-0.2710,0.1628,0.9340,-0.7324,4.6387,6.2256,0,0,0,1
-0.3514,0.2047,0.8832,0.6714,1.2817,3.3569,0,0,0,1
-0.3284,0.1935,0.9070,-0.3662,-0.9766,-1.4648,0,0,0,1
-0.2845,0.1749,0.9152,4.8218,2.8076,1.2817,0,0,0,1
-0.2972,0.2000,0.8365,10.1318,4.9438,0.4883,0,0,0,1
-0.2511,0.1173,0.8850,22.8882,8.9111,-1.0986,0,0,0,1
-0.1851,0.0117,1.0002,0.7324,-19.5313,-2.8687,1,0,0,0
-0.3582,0.1846,0.7886,5.0049,27.3438,11.5967,1,0,0,0
-0.1846,0.1698,0.8093,30.0293,41.1987,9.0942,0,0,0,1
-0.1599,0.0139,0.9133,78.2471,40.6494,2.6855,0,0,0,1
-0.1632,-0.1001,0.9990,54.5044,31.9214,21.4233,0,0,1,0
-0.1591,-0.2273,1.0881,55.7861,6.5308,0.2441,0,0,1,0
-0.2299,-0.3451,1.1721,28.9917,-5.4321,11.1084,0,0,1,0
-0.1869,-0.3057,1.0508,-6.6528,-2.8687,-2.3804,0,0,1,0
-0.0665,-0.2085,0.8802,-10.8643,-8.3008,-9.6436,0,0,1,0
-0.1467,-0.1976,0.9091,-2.1362,-5.3101,4.8218,0,0,1,0
-0.1970,-0.2283,0.9850,-1.7090,-6.4087,0.6104,0,0,1,0
-0.1812,-0.2587,1.0425,-2.3193,-13.6719,1.8921,0,0,1,0
-0.2051,-0.2332,1.0797,-16.7847,-22.5220,6.8359,0,0,1,0
-0.3556,-0.3507,1.2184,-68.7866,1.8921,26.0620,0,0,1,0
-0.4904,-0.0282,0.8085,-108.0322,-56.3354,-17.0288,1,0,0,0
-0.3143,0.1295,0.7430,-21.4844,-23.8037,-57.7393,1,0,0,0
-0.0934,0.1434,0.8719,13.6108,10.4370,-26.6113,0,0,0,1
-0.1389,0.0763,0.8826,-1.5259,40.7104,20.1416,0,0,0,1
-0.1086,0.0829,0.8910,-6.3477,13.3667,-7.8735,0,0,0,1
-0.0679,0.0758,0.9115,-2.5024,2.1973,-5.1270,0,0,0,1
-0.1166,0.0581,0.9485,0.6714,-6.4697,2.5024,0,0,0,1
-0.2198,0.0963,0.9386,-7.0190,-8.9722,8.9111,0,0,0,1
-0.2502,0.0859,0.9790,-1.6479,-1.6479,3.2349,1,0,0,0
-0.2114,0.0822,0.9697,-1.8311,2.5024,0.3662,0,0,0,1
-0.1884,0.0962,0.9310,-1.8311,2.0142,1.7700,0,0,0,1
-0.1614,0.0361,0.9865,4.6387,7.0801,12.1460,0,0,0,1
-0.1128,-0.0431,1.0026,-1.4038,11.1084,25.6348,0,1,0,0
-0.0845,-0.1417,1.0558,-6.3477,14.7095,43.3350,0,0,1,0
-0.1418,-0.0463,0.9884,-23.1323,10.6812,54.5044,0,0,1,0
-0.1021,-0.0457,0.9875,-22.8882,15.9912,63.6597,0,1,0,0
-0.0977,-0.0391,0.9583,-39.9170,9.2773,87.6465,0,1,0,0
-0.1630,0.0182,0.9301,-42.8467,10.5591,117.6758,0,0,0,1
-0.3457,0.1317,0.9481,-55.8472,9.8877,132.8735,1,0,0,0
-0.5120,0.3765,0.8268,-53.8330,2.9907,107.6660,0,0,0,1
-0.5404,0.5286,0.7477,-34.7290,1.2817,58.0444,0,0,0,1
-0.4728,0.5348,0.7216,-15.1978,-10.5591,-4.5776,0,0,0,1
-0.3333,0.4143,0.7622,10.1929,-16.0522,-36.4380,0,0,0,1
-0.2114,0.2118,0.9535,17.7612,-8.7891,-24.0479,0,0,0,1
-0.3311,0.2549,0.9664,6.3477,-10.2539,-19.1650,0,0,0,1
-0.4558,0.4016,0.8268,2.7466,-7.9956,-30.2124,0,0,0,1
-0.4250,0.4323,0.7734,11.6577,-6.6528,-48.2178,0,0,0,1
-0.3115,0.3099,0.8113,37.0483,-8.6670,-76.8433,0,0,0,1
-0.2903,0.1936,0.8512,51.0254,-4.9438,-84.5337,0,0,0,1
-0.2729,0.1292,0.8889,40.5273,-8.9111,-76.6602,0,0,0,1
-0.1625,0.0157,1.0011,35.8276,-7.9956,-70.3735,0,0,0,1
-0.1732,-0.0415,0.9974,45.7764,-8.7891,-82.8247,1,0,0,0
-0.1304,-0.0341,0.9734,19.2871,-8.6670,-48.1567,0,0,1,0
-0.0474,-0.1343,1.0934,18.2495,-0.0610,-25.2075,0,0,1,0
-0.1121,-0.0145,1.0004,1.1597,-1.2207,-4.8218,0,1,0,0
-0.1921,0.0680,0.9558,-3.5400,-1.7700,0.9155,0,0,0,1
-0.1846,0.0571,0.9567,-0.7935,-1.9531,-3.6011,0,0,0,1
-0.1880,0.0469,0.9714,-1.8311,-0.2441,-2.2583,0,0,0,1
-0.1586,0.0354,0.9722,-6.5308,-0.9766,2.0142,0,0,0,1
-0.1766,0.0796,0.9382,-5.7983,-1.8311,4.6997,0,0,0,1
-0.2325,0.0968,0.9536,-3.9062,-3.9062,2.5024,0,0,0,1
-0.2092,0.0911,0.9526,-5.4932,0.1831,0.0610,0,0,0,1
-0.1711,0.0687,0.9501,-1.2207,-0.4272,-0.3052,0,0,0,1
-0.1785,0.0642,0.9736,-3.1738,-1.0376,2.2583,0,0,0,1
-0.2035,0.0719,0.9708,-3.1128,-0.2441,1.4038,0,0,0,1
-0.1857,0.0814,0.9562,-2.7466,0.1831,1.2817,0,0,0,1
-0.1838,0.0875,0.9451,-1.5259,-0.0610,0.4883,0,0,0,1
-0.2035,0.0900,0.9487,-3.4790,-1.9531,0.1831,0,0,0,1
-0.1954,0.0796,0.9668,-3.5400,-0.4883,2.7466,0,0,0,1
-0.1835,0.0789,0.9689,-1.7700,1.0376,1.4038,0,0,0,1
-0.1864,0.0911,0.9508,-4.2725,-1.6479,-0.4883,0,0,0,1
-0.1991,0.0903,0.9615,-0.1831,1.5869,2.3193,0,0,0,1
-0.1941,0.0894,0.9564,-3.9062,-0.0610,1.4648,0,0,0,1
-0.1771,0.0822,0.9646,-1.5869,-0.8545,-0.9766,0,0,0,1
-0.1852,0.0972,0.9545,-1.1597,0.1221,0.7935,0,0,0,1
-0.1978,0.0973,0.9645,-2.0752,-1.4038,-0.7324,0,0,0,1
-0.1998,0.1083,0.9386,1.0376,0.2441,-1.7700,0,0,0,1
-0.2040,0.1222,0.9200,5.4932,-1.7090,-6.6528,0,0,0,1
-0.2040,0.1080,0.9330,14.8315,-2.5024,-15.4419,0,0,0,1
-0.1858,0.0538,0.9646,15.5640,-6.7749,-23.3154,0,0,0,1
-0.2130,0.0217,0.9819,14.4653,-5.9204,-19.4702,1,0,0,0
-0.2039,0.0104,0.9758,5.7983,-4.8828,-13.3667,1,0,0,0
-0.2450,0.0081,0.9618,14.1602,0.1831,-16.9067,1,0,0,0
-0.2803,0.0894,0.8169,37.4146,-0.6714,-51.9409,1,0,0,0
-0.3190,-0.0100,0.8540,78.0029,-3.2349,-80.9326,1,0,0,0
-0.1743,-0.2848,1.0649,58.2886,3.7842,-79.5898,0,0,1,0
-0.1595,-0.3655,0.9901,35.0342,3.1738,-44.3726,0,0,1,0
-0.1619,-0.3353,0.9521,22.4609,11.4746,-27.9541,0,0,1,0
-0.1552,-0.2964,0.9539,2.3804,2.6245,-7.0190,0,0,1,0
-0.2039,-0.2905,0.9573,-0.6714,0.1831,-0.7324,0,0,1,0
-0.1620,-0.3262,0.9811,-2.6855,3.2349,6.1646,0,0,1,0
-0.1716,-0.3262,0.9471,-18.6768,2.8076,24.4141,0,0,1,0
-0.1421,-0.3199,0.9670,-33.3252,-4.3335,35.2783,0,0,1,0
-0.1171,-0.2932,0.9709,-37.2314,1.6479,69.0308,0,0,1,0
-0.2643,-0.1504,0.8798,-39.4897,-6.6528,60.7910,0,0,1,0
-0.2058,-0.1119,0.9294,-29.2969,-10.0708,35.4614,0,0,1,0
-0.1382,-0.1923,1.0179,-17.6392,3.9062,49.5605,0,0,1,0
-0.1599,-0.1541,0.9977,-65.4907,-7.2021,55.5420,0,0,1,0
-0.2432,0.0707,0.8219,-36.6821,-3.1738,40.8325,1,0,0,0
-0.3088,0.0924,0.9088,-9.9487,2.3193,34.5459,1,0,0,0
-0.2062,0.0411,0.9846,-12.8174,-3.0518,18.9209,1,0,0,0
-0.2561,0.0778,0.9591,-1.2817,1.5869,10.9863,1,0,0,0
-0.2240,0.0936,0.9292,-4.9438,0.0000,3.6621,0,0,0,1
-0.1985,0.0532,0.9507,-1.6479,-2.1362,-3.4790,0,0,0,1
-0.2003,0.0382,0.9606,2.7466,-2.1362,-4.2114,1,0,0,0
-0.1958,0.0334,0.9521,-0.9155,-3.0518,-4.8828,1,0,0,0
-0.2053,0.0287,0.9644,2.0752,-0.1221,-3.9062,1,0,0,0
-0.1799,0.0066,0.9768,1.5869,-0.6714,-3.6621,1,0,0,0
-0.2089,0.0266,0.9564,15.5029,-0.1831,-2.1362,1,0,0,0
-0.1863,0.0164,0.9568,-2.6245,-2.7466,-1.5259,1,0,0,0
-0.1980,0.0282,0.9587,-1.8921,-0.5493,-0.0610,1,0,0,0
-0.2079,0.0266,0.9594,-0.7935,-1.1597,-1.3428,1,0,0,0
-0.2007,0.0363,1.0117,0.4883,-4.0894,-3.1128,1,0,0,0
-0.3113,0.0217,1.1780,-13.3667,-5.7983,-10.0708,1,0,0,0
-0.0796,-0.0300,1.2113,3.6621,34.5459,-10.0708,0,1,0,0
0.0336,-0.0778,1.2526,-1.8921,70.4346,26.7944,0,1,0,0
0.0360,0.0250,1.0240,-20.0806,67.0166,49.0112,0,1,0,0
0.0039,0.0205,0.9963,-30.0293,50.0488,40.6494,0,1,0,0
-0.0592,0.1550,0.8527,-33.5693,28.3813,22.7051,0,0,0,1
-0.0010,0.2126,0.7201,-31.9214,14.2212,6.5918,0,0,0,1
0.0591,0.2080,0.7566,-7.5073,23.1323,8.5449,0,0,0,1
0.1221,0.1572,0.8198,-8.3008,7.9346,-4.2114,0,1,0,0
0.1466,0.2886,0.7230,-1.4648,1.6479,1.8311,0,0,0,1
0.1111,0.2549,0.7637,11.4746,-3.2349,-3.8452,0,0,0,1
0.1421,0.2078,0.8453,18.0054,-8.3618,-11.0474,0,1,0,0
0.0775,0.1812,0.9202,19.8364,-9.4604,-20.5078,0,1,0,0
0.1320,0.0635,0.9644,15.3198,-9.7046,-31.6772,0,1,0,0
0.0122,0.0585,0.8984,6.0425,-11.9019,-26.7334,0,1,0,0
0.1041,-0.0939,0.9993,-1.1597,-10.2539,-31.1890,0,1,0,0
0.1489,0.1052,0.9183,-28.1372,-25.4517,-22.2168,0,1,0,0
0.1793,0.1345,0.9324,-10.0708,-35.5225,-29.2358,0,1,0,0
0.1305,0.2417,0.8379,-8.3008,-50.4150,-17.3340,0,1,0,0
0.0359,0.0432,1.0013,15.7471,-55.7251,-29.8462,0,1,0,0
-0.0934,-0.0144,1.0148,-13.6108,-76.5991,-28.1372,0,1,0,0
-0.1444,0.0858,1.0382,-14.8315,-70.3125,-8.3618,0,0,0,1
-0.4412,-0.0420,1.5525,35.0952,31.7993,15.1367,1,0,0,0
-0.4453,0.0588,0.7317,-32.1045,3.9062,6.9580,1,0,0,0
-0.1360,0.1986,0.8550,-2.2583,-4.8828,-5.5542,0,0,0,1
-0.1633,0.0637,1.0272,5.3711,4.3945,-1.7090,0,0,0,1
-0.3015,0.1914,0.8354,-12.3291,-6.5308,8.4229,0,0,0,1
-0.2723,0.1002,1.0088,4.6387,-0.3052,-4.8828,1,0,0,0
-0.2560,0.1439,0.9094,-2.3804,1.3428,-0.3052,0,0,0,1
-0.2083,0.1005,0.9696,-0.5493,1.8311,-2.7466,0,0,0,1
-0.1790,0.1136,0.9412,-2.1973,3.7231,10.0708,0,0,0,1
-0.2627,0.1310,0.9408,-0.4272,3.0518,8.6670,0,0,0,1
-0.1805,0.1338,0.8713,9.1553,5.3711,4.9438,0,0,0,1
-0.0988,0.0768,0.8566,28.2593,23.1323,7.0801,0,0,0,1
-0.1143,0.0518,0.8457,1.5869,-17.9443,-27.1606,0,0,0,1
-0.2411,0.0818,0.7783,33.0200,-51.5747,-39.9780,1,0,0,0
-0.2948,-0.0144,0.8805,19.7754,-47.1802,-19.4702,1,0,0,0
-0.4623,-0.0336,0.9816,28.1372,-0.4272,-10.7422,1,0,0,0
-0.3561,-0.0424,1.1001,22.0337,41.4429,21.6064,1,0,0,0
-0.4088,0.0161,0.9386,-39.7339,31.3721,0.5493,1,0,0,0
-0.0892,-0.0879,1.0372,17.8833,8.0566,-0.9155,0,0,1,0
-0.3163,-0.0563,0.9135,-3.8452,1.2207,6.7749,1,0,0,0
-0.2034,-0.0669,0.9814,1.0986,-3.9673,-3.3569,1,0,0,0
-0.2413,-0.0638,0.9921,-9.2773,-6.5918,11.0474,1,0,0,0
-0.3005,-0.0615,1.0836,-14.0991,-4.0283,12.8174,1,0,0,0
-0.1614,-0.1158,1.1198,-13.9160,-6.1035,31.4331,0,0,1,0
-0.2931,-0.0968,1.0559,-10.5591,30.2734,54.5044,1,0,0,0
-0.2823,0.0011,1.0597,-35.1563,30.7617,30.3955,1,0,0,0
-0.1976,0.0704,0.9747,-27.2827,49.4995,15.3198,0,0,0,1
-0.0570,0.0109,0.9276,-7.7515,69.4580,2.2583,0,1,0,0
-0.0447,0.0430,0.8767,-15.6250,50.5371,10.7422,0,1,0,0
0.0425,0.0553,0.7946,-13.3057,29.5410,2.0142,0,1,0,0
0.0688,0.0710,0.8109,-6.2256,15.5029,0.1221,0,1,0,0
0.1232,0.0592,0.8759,-1.8311,8.0566,-4.8828,0,1,0,0
0.1232,0.0928,0.8696,-2.6245,-5.1880,-0.8545,0,1,0,0
0.0941,0.1067,0.9080,2.0752,-7.8125,-1.0986,0,1,0,0
0.0665,0.0640,0.9277,4.8218,-9.6436,-2.5024,0,1,0,0
0.0352,0.0309,0.9110,-0.7324,-12.8174,2.9297,0,1,0,0
0.0836,0.0745,0.8761,-0.4272,-18.0664,10.6812,0,1,0,0
0.0067,0.1011,0.8895,1.7090,-30.3955,-0.7935,0,1,0,0
-0.0262,0.0857,0.9429,-0.2441,-53.1006,-4.5166,0,1,0,0
-0.1565,-0.0142,0.9949,25.9399,-33.9355,-16.6016,1,0,0,0
-0.0588,-0.0851,1.0126,-5.0049,-31.3721,-0.3052,0,1,0,0
-0.2377,0.1079,0.9214,-8.9111,-20.3247,6.4087,0,0,0,1
-0.1196,0.2620,1.2316,55.7861,16.2964,-17.7002,0,0,0,1
-0.3147,-0.0917,0.8905,11.1694,18.7988,-1.4038,1,0,0,0
-0.1329,-0.0557,0.9847,20.4468,-13.6719,-50.4761,0,0,1,0
-0.0258,-0.1349,1.0560,-24.2920,17.3950,-28.0151,0,0,1,0
-0.1902,-0.1115,1.1309,-8.6060,23.3765,12.5732,0,0,1,0
-0.1599,-0.0204,0.9584,-8.6670,-20.3857,-17.5781,1,0,0,0
-0.1141,0.0186,0.9081,-6.9580,-3.7231,-2.8687,0,0,0,1
-0.1697,-0.0059,0.9973,4.8828,0.2441,0.8545,1,0,0,0
-0.1401,-0.0227,0.9700,-4.9438,-5.7373,-2.3804,1,0,0,0
-0.1899,0.0118,0.9426,-2.8076,-2.1362,-1.5869,1,0,0,0
-0.1471,-0.0088,0.9563,2.3193,-2.1362,-3.7231,0,0,0,1
-0.1647,-0.0079,0.9761,-1.0376,2.1362,1.1597,1,0,0,0
-0.1600,-0.0084,0.9470,0.9766,-1.5869,-0.1831,1,0,0,0
-0.1648,-0.0229,0.9799,-0.6104,1.1597,1.7700,1,0,0,0
-0.1622,-0.0129,0.9645,-0.2441,2.4414,-2.5635,1,0,0,0
-0.1522,-0.0195,0.9626,-0.4883,1.4648,2.4414,1,0,0,0
-0.1327,-0.0398,0.9818,0.0000,-2.6245,-2.6855,0,0,1,0
-0.1501,-0.0337,0.9967,-1.8311,-5.5542,0.4883,1,0,0,0
-0.1771,-0.0088,0.9735,2.1362,-3.7231,-2.5635,1,0,0,0
-0.1445,-0.0399,0.9797,1.9531,-0.1221,1.8921,0,0,1,0
-0.2145,-0.0078,0.9597,-2.3804,-3.3569,-3.4790,1,0,0,0
-0.1411,-0.0269,0.9703,-0.3662,-0.8545,0.9766,0,0,1,0
-0.1533,-0.0377,0.9865,-1.5869,-1.1597,0.1221,0,0,1,0
-0.1740,-0.0165,0.9678,-2.9297,-0.3662,-0.5493,1,0,0,0
-0.1715,-0.0219,0.9760,0.9155,-0.2441,-0.5493,1,0,0,0
-0.1754,-0.0239,0.9730,-0.2441,0.0610,-1.2817,1,0,0,0
-0.1600,-0.0266,0.9790,0.4272,-2.1362,0.3662,1,0,0,0
-0.2040,-0.0273,0.9722,1.4648,-5.5542,1.8311,1,0,0,0
-0.1774,-0.0399,0.9862,-0.7935,-3.6011,0.0000,1,0,0,0
-0.2257,-0.0299,0.9993,1.0376,-1.3428,3.3569,1,0,0,0
-0.2280,-0.0465,1.0143,5.4321,7.1411,7.2021,1,0,0,0
-0.2126,-0.0614,0.9874,5.7373,7.1411,7.8735,1,0,0,0
-0.1694,-0.0903,1.0204,9.2163,-1.9531,15.7471,0,0,1,0
-0.2192,-0.0919,0.9816,4.8218,-1.8921,11.7798,1,0,0,0
-0.1973,-0.1022,0.9879,-9.5825,10.4980,6.8970,0,0,1,0
-0.1431,-0.0840,0.9585,-15.5029,2.6245,-3.4790,0,0,1,0
-0.0879,-0.0465,0.9962,-21.8506,-18.5547,-25.8179,0,1,0,0
-0.0745,0.0244,0.8840,-27.2217,-5.4932,-2.6855,0,1,0,0
-0.1079,0.0312,0.8978,-26.4282,0.4272,14.4653,0,0,0,1
-0.1177,0.0592,0.9215,-25.0854,-6.5308,13.0615,0,0,0,1
-0.1969,0.0903,0.9176,-12.5122,-4.8828,13.0005,0,0,0,1
-0.2260,0.0961,0.9736,-1.0986,-3.1128,3.1128,0,0,0,1
-0.2279,0.0746,0.9895,2.3193,-1.0986,-2.7466,0,0,0,1
-0.1869,0.0765,0.9508,2.3804,2.0752,-3.2959,0,0,0,1
-0.1603,0.0541,0.9607,-0.4272,0.4883,-0.8545,0,0,0,1
-0.1986,0.0743,0.9485,-0.9766,-0.4272,-0.6714,0,0,0,1
-0.2190,0.0560,0.9962,-0.7935,2.3804,3.5400,1,0,0,0
-0.2101,0.0826,0.9401,-4.6997,-2.3804,0.6104,0,0,0,1
-0.1946,0.0649,0.9630,-2.0142,-0.5493,0.0610,0,0,0,1
-0.1771,0.0645,0.9731,0.7324,2.7466,5.0659,0,0,0,1
-0.2010,0.0602,0.9767,-2.5024,-1.0986,3.6011,0,0,0,1
-0.1797,0.0536,0.9730,-0.2441,2.6245,7.2021,0,0,0,1
-0.1228,0.0360,0.9518,-4.6997,9.7046,13.4277,0,0,0,1
-0.1431,-0.0043,0.9741,4.3335,17.2119,42.2974,0,0,0,1
-0.0922,-0.1002,1.0688,-9.9487,1.4648,26.6724,0,0,1,0
-0.1320,-0.0299,0.9827,-20.0806,6.7139,50.7813,0,0,1,0
-0.1066,-0.0411,1.0042,-28.7476,1.5869,54.7485,0,1,0,0
-0.0970,-0.0350,0.9635,-39.6729,3.5400,76.5991,0,1,0,0
-0.1387,-0.0261,0.9520,-45.9595,2.8687,96.4355,0,0,1,0
-0.2855,0.0928,0.9312,-52.3071,-2.8076,113.9526,1,0,0,0
-0.4855,0.2948,0.8436,-52.0630,-3.3569,97.4731,1,0,0,0
-0.5648,0.4170,0.7852,-40.2832,-1.9531,60.7300,0,0,0,1
-0.4908,0.4589,0.7689,-17.1509,1.2207,23.8647,0,0,0,1
-0.4180,0.3977,0.8059,-1.2207,-1.0376,-1.5869,0,0,0,1
-0.3214,0.2721,0.8906,6.2866,-4.9438,-14.0381,0,0,0,1
-0.2933,0.2352,0.9117,1.9531,-5.3101,-9.4604,0,0,0,1
-0.2960,0.2262,0.9504,-1.1597,2.3804,-3.0518,0,0,0,1
-0.2931,0.2775,0.8765,-6.2256,5.1270,3.2349,0,0,0,1
-0.3304,0.3187,0.8658,-1.7090,-0.7935,-4.0283,0,0,0,1
-0.3167,0.3123,0.8618,2.7466,1.2207,-7.4463,0,0,0,1
-0.3248,0.3156,0.8599,3.7231,-2.3193,-13.1836,0,0,0,1
-0.3680,0.3170,0.8978,4.2725,-1.5869,-20.8130,0,0,0,1
-0.3927,0.3779,0.8151,7.5684,7.3853,-28.3203,0,0,0,1
-0.3478,0.3538,0.8218,34.5459,1.4648,-60.0586,0,0,0,1
-0.2845,0.2546,0.8517,40.1001,-7.5073,-72.9980,0,0,0,1
-0.2451,0.1844,0.9731,24.0479,-11.4746,-67.1997,0,0,0,1
-0.2745,0.1204,0.9639,27.8320,-10.9253,-83.8623,0,0,0,1
-0.2585,0.1959,0.8676,22.0337,-10.3760,-69.2139,0,0,0,1
-0.1556,0.1133,0.9442,27.5879,-14.5264,-72.9980,0,0,0,1
-0.1349,-0.0054,1.0237,29.9683,-20.3857,-69.8242,0,0,0,1
-0.1427,-0.0366,1.0239,23.0103,-10.6812,-37.7808,0,0,1,0
-0.1599,-0.0486,1.0563,8.6060,-8.0566,-20.6909,0,0,1,0
-0.1807,0.0291,1.0007,0.6104,-3.1128,-4.6387,0,0,0,1
-0.2097,0.0892,0.9548,-5.1880,0.4272,4.2114,0,0,0,1
-0.2263,0.1343,0.9194,-3.6621,-3.0518,0.0610,0,0,0,1
-0.2168,0.1049,0.9572,1.7090,-0.3662,-1.6479,0,0,0,1
-0.2207,0.0956,0.9703,-4.4556,-1.8311,-0.6714,0,0,0,1
-0.2285,0.1062,0.9581,-4.1504,-0.9766,2.3804,0,0,0,1
-0.2417,0.1316,0.9373,-2.3804,-1.6479,3.2349,0,0,0,1
-0.2360,0.1366,0.9330,-1.2207,-5.1270,-1.4648,0,0,0,1
-0.2311,0.1182,0.9435,-2.9907,-0.9155,2.0752,0,0,0,1
-0.2240,0.1163,0.9438,-1.7090,-1.9531,1.7090,0,0,0,1
-0.2452,0.1210,0.9603,-2.0142,-2.6245,-0.2441,0,0,0,1
-0.2782,0.1769,0.9753,-0.0610,-2.1362,-2.6855,0,0,0,1
-0.2113,0.2585,0.9260,4.1504,-0.9766,-20.8130,0,0,0,1
-0.3967,0.3308,0.8531,36.7432,14.4043,-25.6348,0,0,0,1
-0.4271,0.1846,0.8062,87.7075,15.1367,-95.3369,1,0,0,0
-0.0562,-0.2086,1.0203,78.6133,23.7427,-69.7021,0,0,1,0
-0.2457,-0.2526,0.9464,34.3628,1.0376,-70.7397,0,0,1,0
-0.2484,-0.1893,0.7576,15.3809,-17.8833,-91.1865,0,0,1,0
-0.2317,-0.3608,0.8156,72.6318,17.7612,-61.1572,0,0,1,0
-0.1200,-0.5238,1.0256,34.7290,0.9766,-26.3062,0,0,1,0
-0.1404,-0.5222,1.0985,-6.2256,-10.2539,-7.6904,0,0,1,0
-0.2374,-0.3353,0.9548,-20.5078,0.5493,18.8599,0,0,1,0
-0.2275,-0.3278,0.9280,-31.4331,9.4604,35.0342,0,0,1,0
-0.1704,-0.4021,0.9524,-19.9585,21.0571,42.9077,0,0,1,0
-0.1047,-0.3196,0.8518,-31.4941,27.8320,78.4912,0,0,1,0
-0.2175,-0.2322,0.8873,-58.0444,-11.3525,91.4307,0,0,1,0
-0.2388,-0.0031,0.8073,-82.7026,-40.9546,58.8989,1,0,0,0
-0.1450,0.4644,0.8396,-54.8706,-53.1616,49.3164,0,0,0,1
-0.2924,0.0972,1.4089,28.0151,59.6313,47.7905,1,0,0,0
-0.3340,0.0535,0.6022,-28.0151,-6.8359,0.0610,1,0,0,0
-0.0939,0.0006,0.9856,23.6816,-9.9487,-21.1792,0,1,0,0
-0.0907,-0.1210,1.0852,-13.6719,0.1831,1.7700,0,0,1,0
-0.2021,0.0284,0.9401,0.6104,1.9531,7.6294,1,0,0,0
-0.1578,0.0352,0.9718,-13.9771,-5.1270,2.2583,0,0,0,1
-0.1678,0.0741,0.9260,3.9062,-2.0752,-0.1221,0,0,0,1
-0.1975,-0.0092,1.0162,-2.8687,-2.5635,3.4180,1,0,0,0
-0.1769,0.0166,0.9742,-7.0801,2.9907,-3.1738,1,0,0,0
-0.1532,0.0776,0.9408,-8.4839,-1.8921,0.8545,0,0,0,1
-0.2125,0.0662,0.9736,-3.6621,-2.8687,-4.3335,0,0,0,1
-0.1740,0.0665,0.9501,3.1128,-2.5024,-8.3618,0,0,0,1
-0.1749,0.0090,0.9886,2.4414,2.3804,-1.0986,1,0,0,0
-0.1484,0.0140,0.9740,-3.9062,-0.0610,2.3193,0,0,0,1
-0.1591,0.0732,0.9457,-3.4790,-2.3804,2.5024,0,0,0,1
-0.1912,0.0509,0.9707,0.3662,-4.6387,2.3804,0,0,0,1
-0.1832,-0.0049,1.0316,-5.7983,-4.2114,-2.6855,1,0,0,0
-0.2039,-0.0116,1.0511,-20.3247,-0.3052,6.5308,1,0,0,0
-0.1754,0.0555,1.0111,-34.9121,29.6631,45.2881,0,0,0,1
-0.2164,0.1340,0.9755,-14.4653,35.0342,45.8984,0,0,0,1
-0.0657,0.1964,0.8708,-13.1226,16.6016,5.8594,0,0,0,1
-0.0370,0.1995,0.8713,2.0142,-0.9155,-14.2822,0,0,0,1
0.0087,0.0071,1.1736,2.7466,-26.9165,-17.2119,0,1,0,0
-0.0060,-0.0057,1.4287,3.7842,16.4185,2.0752,0,1,0,0
0.0198,0.0262,1.3993,-8.6670,80.0781,35.7056,0,1,0,0
0.1019,0.2289,0.9807,-42.4805,49.7437,20.8130,0,0,0,1
0.0298,0.3131,0.7102,-38.9404,18.4326,10.7422,0,0,0,1
-0.1154,0.2891,0.6078,-21.3623,2.2583,14.5264,0,0,0,1
-0.1293,0.1926,0.6559,5.4321,12.8174,14.4653,0,0,0,1
-0.1102,0.2299,0.6548,8.2397,12.5122,6.8970,0,0,0,1
-0.0305,0.2468,0.6019,16.6626,3.9062,2.6245,0,0,0,1
0.0127,0.2491,0.6379,22.0337,-7.4463,-2.9907,0,0,0,1
-0.0278,0.1196,0.8451,38.2080,0.8545,5.1270,0,0,0,1
0.0621,0.1316,0.9088,26.6113,-38.0249,-19.9585,0,1,0,0
0.1868,0.0139,1.1665,-4.7607,-59.9976,-29.3579,0,1,0,0
-0.0416,0.0172,1.1461,-19.5923,-73.1201,-9.2163,0,1,0,0
-0.2214,0.2012,0.8835,-35.6445,-98.1445,-10.0098,0,0,0,1
-0.2161,0.6096,1.5554,50.5981,-56.1523,-12.5122,0,0,0,1
-0.3352,-0.0656,0.9906,-28.1372,-1.0986,-10.9863,1,0,0,0
-0.2723,0.0618,0.7698,2.7466,-3.4790,-17.0288,1,0,0,0
-0.2556,0.1930,1.0802,4.2725,-0.8545,3.9673,0,0,0,1
-0.3712,0.1423,0.7936,-13.4277,-2.0142,0.9155,1,0,0,0
-0.3259,0.1210,1.0382,12.6953,3.5400,-7.6294,1,0,0,0
-0.2882,0.1390,0.8644,-9.7656,2.8687,-2.2583,0,0,0,1
-0.2555,0.1243,0.9583,-0.5493,-15.4419,-3.5400,0,0,0,1
-0.2732,0.1277,0.9196,-3.2349,4.7607,11.7798,0,0,0,1
-0.2776,0.1464,0.9299,-4.0894,-1.5869,1.3428,0,0,0,1
-0.3242,0.1760,0.9188,-5.0659,1.0986,3.2959,0,0,0,1
-0.2747,0.1503,0.9541,1.4038,1.2207,-4.9438,0,0,0,1
-0.2758,0.1216,0.9474,1.4648,3.6621,-3.0518,0,0,0,1
-0.2623,0.1395,0.9194,-3.0518,2.9297,0.5493,0,0,0,1
-0.2683,0.1862,0.9081,1.0986,1.2817,-1.4648,0,0,0,1
-0.2751,0.1630,0.9205,2.4414,0.2441,-3.3569,0,0,0,1
-0.2690,0.1139,0.9441,3.7842,1.3428,-5.4932,0,0,0,1
-0.2271,0.0974,0.9606,3.3569,1.8921,-3.1128,0,0,0,1
-0.2607,0.1357,0.9362,-1.2817,0.0610,-1.2207,0,0,0,1
-0.2534,0.1086,0.9478,0.1831,2.1973,0.8545,0,0,0,1
-0.2206,0.1145,0.9224,1.3428,6.2866,7.0801,0,0,0,1
-0.2324,0.1389,0.9213,0.6714,-1.9531,0.4883,0,0,0,1
-0.2675,0.1346,0.9462,-1.4648,-0.4272,-1.2207,0,0,0,1
-0.2233,0.0184,0.9764,3.6011,6.7139,3.1738,1,0,0,0
-0.0779,-0.1477,1.0760,-4.4556,15.1978,19.1040,0,0,1,0
-0.0770,-0.1372,1.0345,-19.3481,23.5596,66.3452,0,0,1,0
-0.1576,-0.1000,0.9937,-28.1982,27.9541,90.8813,0,0,1,0
-0.2980,0.0266,0.9906,-46.6309,15.5640,98.0835,1,0,0,0
-0.3232,0.1300,0.9384,-49.4385,28.6255,109.9243,1,0,0,0
-0.3611,0.2773,0.8593,-53.4058,24.6582,96.5576,0,0,0,1
-0.3597,0.4504,0.7426,-51.2085,12.3291,71.4722,0,0,0,1
-0.3604,0.4888,0.7704,-28.1372,10.3760,50.0488,0,0,0,1
-0.3699,0.4861,0.7930,-13.7939,-1.0376,12.8784,0,0,0,1
-0.2877,0.4059,0.8304,0.4272,3.2959,-2.0752,0,0,0,1
-0.2084,0.3258,0.8853,5.0049,-3.0518,-12.3901,0,0,0,1
-0.1750,0.2821,0.9259,3.9062,-1.9531,-5.6152,0,0,0,1
-0.2129,0.3005,0.9171,-0.7935,-2.6855,-1.2817,0,0,0,1
-0.2306,0.3213,0.9055,-3.5400,-0.7324,1.4038,0,0,0,1
-0.2365,0.3521,0.8644,-2.3193,-1.0376,-1.4648,0,0,0,1
-0.2030,0.3258,0.8922,-1.7700,-1.4038,-1.7700,0,0,0,1
-0.2222,0.3191,0.8987,-0.1221,-0.8545,-1.3428,0,0,0,1
-0.2406,0.3265,0.9008,-4.5776,-0.8545,2.0752,0,0,0,1
-0.2200,0.3353,0.8818,-2.4414,0.9155,1.3428,0,0,0,1
-0.2253,0.3361,0.8958,-3.3569,-0.0610,2.3804,0,0,0,1
-0.2439,0.3552,0.8770,-2.0142,-0.1831,1.3428,0,0,0,1
-0.2202,0.3314,0.8939,-1.2207,-0.3662,-1.4648,0,0,0,1
-0.2231,0.3315,0.9010,0.2441,-0.9155,-2.3804,0,0,0,1
-0.3026,0.3928,0.8605,-2.4414,-1.1597,-3.0518,0,0,0,1
-0.4247,0.5890,0.6873,8.8501,-34.3018,-38.5132,0,0,0,1
-0.3519,0.3993,0.7186,99.6094,-70.3125,-116.9434,0,0,0,1
-0.2434,0.3470,0.6462,88.1348,-84.5947,-91.1255,0,0,0,1
-0.4485,0.2015,0.7992,66.9556,-94.6045,-76.7822,1,0,0,0
-0.7128,-0.0004,0.8633,97.9614,-87.8906,-102.7222,1,0,0,0
-0.8259,0.0272,0.7253,91.2476,-67.8711,-103.9429,1,0,0,0
-0.6418,-0.0857,0.7706,59.9365,-26.4893,-54.5044,1,0,0,0
-0.6405,-0.2520,0.8547,56.2134,-5.8594,-20.8740,1,0,0,0
-0.6118,-0.1979,0.8296,32.4707,-7.7515,-17.5171,1,0,0,0
-0.6256,-0.1321,0.8042,-7.3853,6.5308,2.7466,1,0,0,0
-0.6595,-0.0975,0.8226,-8.1177,5.6152,-0.9155,1,0,0,0
