temp,pressure,proximity,r,g,b,a,accX,accY,accZ,gyroX,gyroY,gyroZ,up,down,right,left,side
29.480,100.429,255,0,0,0,0,0.0039,0.1274,0.9648,-0.9155,-1.6479,0.0610,0,0,0,1,0
29.470,100.417,251,39,25,26,76,0.0077,0.1288,0.9503,-0.1831,0.9155,0.0000,0,0,0,0,0
29.500,100.425,250,39,25,26,76,0.0010,0.1293,0.9629,-2.0142,-1.3428,-0.4883,1,0,0,0,0
29.480,100.423,251,39,25,26,76,0.0026,0.1285,0.9614,-2.3193,-1.0376,0.5493,1,0,0,0,0
29.510,100.431,250,39,25,26,76,0.0049,0.1272,0.9600,-2.5024,-0.2441,-1.0376,1,0,0,0,0
29.520,100.382,251,39,25,26,76,0.0002,0.1385,0.9624,-2.6245,1.3428,0.7324,0,0,0,1,0
29.500,100.426,249,38,25,26,76,0.0009,0.1340,0.9628,-1.2817,-0.8545,-1.5259,1,0,0,0,0
29.520,100.432,251,39,26,26,76,0.0052,0.1223,0.9694,0.1831,-0.0610,0.3052,0,0,1,0,0
29.520,100.428,250,39,25,26,76,0.0363,0.1266,0.9929,-8.2397,-2.1362,5.0049,0,1,0,0,0
29.510,100.423,250,39,26,26,77,0.0859,0.0922,0.9812,-24.5972,-4.0283,5.3101,0,1,0,0,0
29.530,100.424,251,40,27,27,80,0.0806,0.1512,0.8932,-12.3291,-10.8643,14.9536,0,1,0,0,0
29.500,100.373,251,41,28,28,82,-0.0389,0.2748,0.8505,13.1226,-11.2305,17.3950,0,0,0,1,0
29.510,100.426,252,40,27,27,79,-0.2380,0.2397,0.9406,-27.1606,-45.4102,8.4839,1,0,0,0,0
29.500,100.428,251,39,27,26,76,-0.0028,0.2410,0.9105,-20.3247,-70.0073,-5.9204,0,0,0,1,0
29.490,100.427,252,37,25,24,70,-0.4902,0.1472,1.0009,29.0527,-81.8481,-48.0347,1,0,0,0,0
29.490,100.426,251,33,23,22,63,-0.4216,0.0929,0.8777,96.4966,37.7808,21.6675,1,0,0,0,0
29.480,100.423,252,32,22,21,63,-0.3938,0.0585,0.8854,-10.9253,5.2490,11.2305,1,0,0,0,0
29.500,100.426,251,33,22,21,63,-0.3781,0.0702,0.9012,-19.1040,-16.2964,3.8452,1,0,0,0,0
29.480,100.366,251,34,23,22,64,-0.4102,0.1050,0.9130,-25.7568,0.5493,-0.5493,1,0,0,0,0
29.480,100.429,251,34,23,22,67,-0.3978,0.1453,0.8799,-0.4272,7.6904,3.7231,1,0,0,0,0
29.470,100.419,252,35,24,23,67,-0.3801,0.1326,0.9093,6.4087,13.0615,4.5166,1,0,0,0,0
29.470,100.426,252,35,24,23,68,-0.3484,0.1309,0.9125,-17.8223,2.6245,1.4038,1,0,0,0,0
29.500,100.436,252,36,24,24,70,-0.3347,0.1320,0.9041,-1.2817,9.9487,6.6528,1,0,0,0,0
29.500,100.428,250,36,25,24,69,-0.3223,0.1553,0.8951,-5.7373,4.9438,-1.8311,1,0,0,0,0
29.480,100.396,250,36,25,24,70,-0.3293,0.1526,0.9142,-2.3193,-3.0518,1.2817,1,0,0,0,0
29.490,100.388,252,36,25,24,71,-0.3344,0.1454,0.9229,-4.8218,0.3052,-0.9155,1,0,0,0,0
29.490,100.419,251,36,25,24,71,-0.3240,0.1539,0.9015,0.7324,0.5493,2.9907,1,0,0,0,0
29.490,100.425,251,36,25,24,70,-0.3296,0.1483,0.9180,-7.8735,-3.4180,-1.7090,1,0,0,0,0
29.490,100.425,250,36,25,24,70,-0.3263,0.1481,0.9054,-3.1128,-0.3662,0.8545,1,0,0,0,0
29.490,100.437,249,36,25,24,71,-0.3297,0.1564,0.9086,-1.0376,0.0000,0.1221,1,0,0,0,0
29.480,100.423,252,36,25,24,70,-0.3273,0.1461,0.9200,-0.3052,-0.3052,-1.7700,1,0,0,0,0
29.500,100.344,253,36,25,24,70,-0.3230,0.1549,0.9147,-0.5493,0.9766,1.2817,1,0,0,0,0
29.500,100.432,252,36,25,24,71,-0.3247,0.1556,0.9150,-3.3569,1.5259,1.9531,1,0,0,0,0
29.480,100.427,251,36,25,24,72,-0.3159,0.1536,0.9153,-0.8545,2.2583,-1.2817,1,0,0,0,0
29.510,100.436,251,37,25,25,71,-0.3120,0.1460,0.9252,-1.7090,1.5869,1.5259,1,0,0,0,0
29.490,100.426,251,37,25,25,71,-0.3112,0.1565,0.9208,-1.4038,-0.6714,2.3804,1,0,0,0,0
29.500,100.428,252,37,25,25,71,-0.3063,0.1444,0.9302,-3.3569,-1.3428,-1.4038,1,0,0,0,0
29.480,100.427,250,37,25,25,71,-0.3020,0.1595,0.9102,2.3193,3.7231,3.1128,1,0,0,0,0
29.500,100.358,251,37,25,25,72,-0.3115,0.1501,0.9281,-0.9766,0.4883,-1.2207,1,0,0,0,0
29.470,100.430,251,37,25,25,71,-0.3032,0.1412,0.9359,-2.8076,-3.9062,-0.6104,1,0,0,0,0
29.500,100.427,251,37,25,25,72,-0.3027,0.1460,0.9143,1.5869,0.5493,2.1362,1,0,0,0,0
29.500,100.428,252,37,25,25,72,-0.3047,0.1399,0.9220,-3.1128,-0.2441,-1.1597,1,0,0,0,0
29.480,100.428,251,37,25,25,71,-0.3051,0.1450,0.9227,0.3662,-0.1221,0.9155,1,0,0,0,0
29.490,100.435,252,37,25,25,71,-0.3054,0.1421,0.9263,-2.0142,-2.3193,0.6104,1,0,0,0,0
29.490,100.321,252,37,25,25,72,-0.3018,0.1469,0.9191,-2.7466,0.8545,1.5259,1,0,0,0,0
29.500,100.427,252,37,25,25,71,-0.3044,0.1429,0.9233,0.7935,1.3428,-0.6104,1,0,0,0,0
29.480,100.428,253,37,25,25,71,-0.2983,0.1390,0.9264,-0.6104,-0.0610,0.1831,1,0,0,0,0
29.500,100.430,250,37,25,25,72,-0.3024,0.1506,0.9189,1.1597,2.0752,2.1362,1,0,0,0,0
29.480,100.427,251,37,25,25,72,-0.2944,0.1304,0.9347,-2.4414,-0.0610,-2.3193,1,0,0,0,0
29.470,100.432,251,37,25,25,71,-0.2823,0.1367,0.9233,-2.4414,-0.6714,1.9531,1,0,0,0,0
29.480,100.433,251,37,25,25,72,-0.2925,0.1382,0.9263,-1.0986,0.3052,-0.3662,1,0,0,0,0
29.470,100.370,252,37,25,25,71,-0.2837,0.1416,0.9227,-1.2817,0.7935,0.6714,1,0,0,0,0
29.480,100.432,252,37,25,25,72,-0.2972,0.1471,0.9272,-3.6011,-0.1831,1.0376,1,0,0,0,0
29.480,100.434,252,37,25,25,72,-0.2872,0.1298,0.9333,-1.6479,-0.4272,-1.6479,1,0,0,0,0
29.490,100.428,251,37,25,25,72,-0.2944,0.1432,0.9406,1.3428,7.5073,3.6621,1,0,0,0,0
29.490,100.432,250,37,25,25,72,-0.2799,0.1385,0.9528,-2.8687,6.3477,1.7090,1,0,0,0,0
29.490,100.432,251,38,26,25,74,-0.2125,0.1556,1.0375,15.3198,75.8667,12.0850,1,0,0,0,0
29.460,100.362,251,38,25,26,76,-0.0089,0.0979,0.9232,-1.5869,90.4541,-4.6387,0,0,1,0,0
29.460,100.429,251,39,25,26,76,0.0542,0.1183,1.0358,-26.1230,29.1748,-8.0566,0,1,0,0,0
29.470,100.427,252,39,26,26,77,0.2068,0.0555,0.9043,15.1367,70.9229,-19.4702,0,1,0,0,0
29.480,100.425,251,37,24,25,73,0.3374,0.0875,0.9701,-13.9771,-9.8877,25.2075,0,1,0,0,0
29.470,100.427,248,36,23,24,72,0.4279,0.1368,0.7468,28.5034,66.2842,34.5459,0,1,0,0,0
29.460,100.433,250,33,20,21,65,0.4745,0.1758,0.8181,-17.7612,-5.0659,31.4331,0,1,0,0,0
29.450,100.420,250,33,21,21,65,0.4320,0.1029,0.8295,-20.0195,13.4888,-10.0708,0,1,0,0,0
29.460,100.370,251,33,21,22,67,0.4294,0.1152,0.8784,-24.9023,-3.9062,-7.9956,0,1,0,0,0
29.470,100.429,248,34,21,22,67,0.4553,0.1631,0.8175,13.2446,13.6108,10.2539,0,1,0,0,0
29.480,100.429,250,33,21,22,66,0.4188,0.1670,0.8879,-7.0190,-15.5029,-5.5542,0,1,0,0,0
29.490,100.431,249,34,21,22,67,0.4150,0.1348,0.8815,-1.7700,0.0610,-0.9155,0,1,0,0,0
29.470,100.430,248,33,21,22,68,0.4185,0.1543,0.8615,-5.9814,-5.9204,1.9531,0,1,0,0,0
29.480,100.429,248,34,22,22,69,0.3953,0.1471,0.8969,-4.9438,-8.6060,-3.1128,0,1,0,0,0
29.490,100.383,249,34,22,23,69,0.3882,0.1586,0.8842,4.8218,4.6387,3.3569,0,1,0,0,0
29.490,100.423,247,34,21,22,69,0.4015,0.1421,0.8369,1.7090,-5.4321,-0.7935,0,1,0,0,0
29.480,100.424,251,34,22,23,69,0.4124,0.1182,0.9028,-12.3901,-6.4697,-6.8359,0,1,0,0,0
29.480,100.427,252,35,22,23,70,0.3560,0.1453,0.8640,1.6479,-15.1978,16.8457,0,1,0,0,0
29.480,100.425,251,36,23,24,72,0.3123,0.1772,0.9744,-25.1465,-15.0146,-17.2119,0,1,0,0,0
29.480,100.422,250,37,24,25,75,0.3795,0.0936,0.8358,17.8223,17.9443,6.4087,0,1,0,0,0
29.500,100.430,252,37,24,25,74,0.3234,0.2151,0.9370,-15.3809,-12.4512,3.4180,0,1,0,0,0
29.510,100.329,250,38,25,25,76,0.3419,0.1793,0.8411,7.6904,20.0195,15.0146,0,1,0,0,0
29.500,100.427,249,37,24,25,74,0.2980,0.3135,0.9241,-5.6763,-21.0571,13.9160,0,1,0,0,0
29.490,100.432,250,39,25,26,77,0.3445,0.0854,0.8514,-1.0986,10.4370,-26.2451,0,1,0,0,0
29.500,100.431,251,38,24,25,75,0.3104,0.2322,0.9363,8.3618,-7.2021,17.1509,0,1,0,0,0
29.500,100.427,251,38,24,25,76,0.3407,0.1636,0.8904,0.3052,0.6714,-2.1362,0,1,0,0,0
29.510,100.426,250,38,24,25,76,0.3413,0.1691,0.8678,5.2490,1.5869,1.3428,0,1,0,0,0
29.530,100.413,250,38,24,25,76,0.3367,0.1713,0.9167,-4.3945,1.2207,-7.0190,0,1,0,0,0
29.520,100.392,252,38,24,25,75,0.3411,0.1884,0.8948,3.7231,0.7324,5.1880,0,1,0,0,0
29.510,100.427,249,38,24,25,75,0.3260,0.1941,0.9033,-4.1504,-1.7700,-4.3945,0,1,0,0,0
29.500,100.425,251,38,24,25,75,0.3473,0.1428,0.8987,-3.1738,-1.9531,-0.5493,0,1,0,0,0
29.510,100.427,251,38,24,25,75,0.3203,0.1923,0.9020,-3.7842,3.2959,-0.5493,0,1,0,0,0
29.500,100.429,249,37,24,25,74,0.3479,0.1693,0.8932,-1.1597,-1.7700,-1.2817,0,1,0,0,0
29.480,100.433,250,38,24,25,74,0.3251,0.1731,0.9349,-9.3384,-6.3477,-0.6104,0,1,0,0,0
29.480,100.342,252,38,24,25,75,0.3265,0.1793,0.8893,3.8452,2.2583,7.7515,0,1,0,0,0
29.480,100.429,248,38,24,25,75,0.3486,0.1768,0.8763,-3.1128,5.6763,-5.3101,0,1,0,0,0
29.490,100.426,248,38,24,25,75,0.3481,0.1526,0.8942,-5.2490,-1.7700,-2.7466,0,1,0,0,0
29.480,100.428,251,38,24,25,75,0.3501,0.1781,0.8892,6.7139,7.2021,1.0986,0,1,0,0,0
29.500,100.431,252,37,24,25,74,0.3468,0.1694,0.8867,-6.3477,-1.4038,-5.5542,0,1,0,0,0
29.500,100.424,251,37,24,25,74,0.3373,0.1442,0.9238,-5.7373,-2.2583,-2.6245,0,1,0,0,0
29.500,100.422,250,38,24,25,75,0.3280,0.2198,0.8921,9.7046,-0.1221,10.9253,0,1,0,0,0
29.500,100.378,250,37,23,24,73,0.3464,0.1345,0.8776,-2.4414,-3.8452,-8.8501,0,1,0,0,0
29.510,100.428,251,37,24,25,74,0.3472,0.1254,0.9166,-2.9297,7.5684,-2.3193,0,1,0,0,0
29.510,100.427,251,37,23,24,73,0.3058,0.2452,0.8997,7.0190,-4.9438,19.8975,0,1,0,0,0
29.510,100.427,249,37,23,24,73,0.3416,0.1378,0.8994,-20.2026,2.2583,-23.3154,0,1,0,0,0
29.510,100.429,250,37,23,24,73,0.3350,0.1648,0.8868,7.1411,-2.9907,12.2681,0,1,0,0,0
29.510,100.428,248,37,23,24,73,0.3452,0.1487,0.9207,-7.3853,4.0283,-8.3618,0,1,0,0,0
29.510,100.361,251,37,23,24,72,0.3363,0.1919,0.8732,10.3760,1.5259,9.3994,0,1,0,0,0
29.520,100.422,250,36,23,24,72,0.3247,0.1519,0.9358,-16.4795,-7.0801,-12.0239,0,1,0,0,0
29.510,100.431,250,36,23,24,72,0.3395,0.1592,0.8950,6.7139,5.9814,6.2866,0,1,0,0,0
29.520,100.425,249,36,23,24,71,0.3247,0.1794,0.9160,-6.9580,-7.5073,-1.0376,0,1,0,0,0
29.520,100.428,251,36,23,24,72,0.3406,0.1362,0.8721,3.4180,4.0283,1.2817,0,1,0,0,0
29.510,100.424,252,36,23,24,71,0.3455,0.1689,0.9274,-8.6060,0.5493,-6.4087,0,1,0,0,0
29.520,100.433,250,36,23,24,71,0.3030,0.1885,0.9253,5.7983,-5.6763,6.9580,0,1,0,0,0
29.510,100.376,250,36,23,24,71,0.3528,0.1096,0.8906,-6.7749,-5.2490,-2.6245,0,1,0,0,0
29.530,100.431,250,36,23,24,71,0.3544,0.1489,0.8759,1.0376,5.1880,5.6763,0,1,0,0,0
29.520,100.429,252,36,23,24,73,0.2826,0.1748,0.9110,-11.8408,-20.9961,14.7705,0,1,0,0,0
29.500,100.419,248,38,25,26,76,0.3002,0.1844,1.0361,-76.2939,-26.7944,-7.4463,0,1,0,0,0
29.510,100.428,249,44,30,31,88,0.2642,0.2260,0.8768,-91.6748,7.6294,19.5923,0,1,0,0,0
29.510,100.426,253,52,43,51,120,0.1334,0.5151,0.6361,16.3574,33.5083,96.3135,0,0,0,1,0
29.510,100.373,252,49,35,43,107,0.0010,0.7388,0.7112,-11.1084,-27.7100,123.5962,0,0,0,1,0
29.490,100.425,252,54,44,59,142,-0.0165,0.5935,0.7187,-80.9937,-21.7896,-58.6548,0,0,0,1,0
29.500,100.424,252,81,73,94,241,-0.0332,0.6270,0.6992,6.7139,-39.9780,34.4849,0,0,0,1,0
29.510,100.429,252,97,86,107,288,-0.2163,0.8010,0.6899,-4.6997,7.8735,2.1362,0,0,0,1,0
29.510,100.428,251,93,82,103,280,-0.1151,0.6921,0.6193,6.2256,4.5776,7.0801,0,0,0,1,0
29.500,100.426,252,90,79,101,272,-0.1307,0.7159,0.6539,2.3804,-4.9438,1.8921,0,0,0,1,0
29.490,100.424,252,90,80,102,271,-0.1492,0.6829,0.6783,6.6528,0.6714,2.8076,0,0,0,1,0
29.500,100.303,250,88,78,100,264,-0.1433,0.6810,0.6843,4.5166,1.4648,0.6104,0,0,0,1,0
29.500,100.426,251,85,76,99,257,-0.1456,0.6658,0.7026,4.5776,-5.3101,2.0142,0,0,0,1,0
29.500,100.425,250,86,77,99,259,-0.1581,0.6729,0.6978,5.1270,2.0752,4.4556,0,0,0,1,0
29.500,100.430,251,82,73,96,247,-0.1489,0.6521,0.7017,5.6763,-2.3804,3.7842,0,0,0,1,0
29.510,100.428,251,82,73,96,246,-0.1390,0.6394,0.6954,1.5259,4.8218,0.0000,0,0,0,1,0
29.510,100.430,252,80,71,94,239,-0.1720,0.6680,0.7178,-3.1128,-4.3335,3.9062,0,0,0,1,0
29.510,100.367,253,79,71,94,239,-0.1547,0.6292,0.7018,4.4556,0.5493,-0.6714,0,0,0,1,0
29.500,100.419,252,79,71,93,236,-0.1647,0.6283,0.7183,1.4038,0.3662,-2.3804,0,0,0,1,0
29.510,100.424,253,79,71,94,237,-0.1697,0.6344,0.7369,-2.5024,-3.9062,0.0610,0,0,0,1,0
29.510,100.433,251,79,71,94,236,-0.1818,0.6354,0.7141,3.7842,1.3428,3.7842,0,0,0,1,0
29.510,100.422,252,76,68,91,228,-0.1749,0.6216,0.7616,-4.6387,-1.7090,8.4229,0,0,0,1,0
29.510,100.424,252,75,68,90,227,-0.1873,0.6039,0.7235,1.7090,0.6714,4.7607,0,0,0,1,0
29.510,100.427,251,74,68,89,224,-0.1825,0.6025,0.7415,-2.9297,-1.4038,-0.4272,0,0,0,1,0
29.510,100.364,252,76,68,91,228,-0.1958,0.6067,0.7482,0.9766,0.0000,0.8545,0,0,0,1,0
29.520,100.429,252,74,68,89,224,-0.1913,0.6022,0.7476,-4.2725,-1.1597,-0.1221,0,0,0,1,0
29.510,100.430,252,75,67,90,224,-0.1915,0.5984,0.7426,1.8311,1.8921,0.7324,0,0,0,1,0
29.520,100.422,252,73,66,88,221,-0.1920,0.5981,0.7493,-1.2207,-2.9907,-1.0986,0,0,0,1,0
29.510,100.427,251,74,67,89,222,-0.1897,0.5951,0.7656,-1.8921,-2.5024,-0.8545,0,0,0,1,0
29.510,100.428,251,74,66,89,221,-0.1989,0.5999,0.7484,-1.2207,1.4648,1.8921,0,0,0,1,0
29.520,100.363,252,72,65,87,217,-0.1895,0.5974,0.7467,0.3662,-2.0142,1.7090,0,0,0,1,0
29.500,100.416,252,73,67,88,219,-0.1824,0.5811,0.7511,-1.8921,-1.9531,-1.5259,0,0,0,1,0
29.510,100.427,251,73,67,89,221,-0.1930,0.5936,0.7451,0.6104,3.9062,-0.2441,0,0,0,1,0
29.530,100.429,251,73,65,88,219,-0.1952,0.6045,0.7520,-1.8921,-0.1831,0.1221,0,0,0,1,0
29.530,100.425,252,73,65,88,219,-0.1921,0.5919,0.7646,-2.5024,-3.6621,-0.4272,0,0,0,1,0
29.510,100.426,250,73,66,88,220,-0.1945,0.5981,0.7389,-0.3052,2.3804,2.9297,0,0,0,1,0
29.510,100.428,252,72,65,87,218,-0.1877,0.5948,0.7559,-3.1738,-4.7607,-2.7466,0,0,0,1,0
29.510,100.372,252,74,68,89,222,-0.2015,0.6024,0.7542,2.6245,1.7090,3.6011,0,0,0,1,0
29.510,100.425,251,72,65,87,217,-0.1891,0.5898,0.7463,-0.5493,-4.8218,-0.7935,0,0,0,1,0
29.510,100.430,251,74,68,90,224,-0.2041,0.5908,0.7563,-3.6011,-1.8311,1.2817,0,0,0,1,0
29.500,100.430,252,73,66,89,221,-0.1989,0.6000,0.7480,-2.6855,-3.4180,0.2441,0,0,0,1,0
29.510,100.426,253,73,66,89,220,-0.1943,0.5774,0.7393,6.9580,-5.4321,-2.1973,0,0,0,1,0
29.510,100.428,251,77,71,94,232,-0.2129,0.5775,0.7808,-5.1270,-1.8921,-2.5635,0,0,0,1,0
29.520,100.371,250,76,70,93,229,-0.2096,0.5953,0.7513,-1.9531,-1.5869,4.1504,0,0,0,1,0
29.520,100.427,251,77,70,93,230,-0.2201,0.5977,0.7484,0.1831,0.6714,0.1831,0,0,0,1,0
29.510,100.424,251,67,61,82,199,-0.1838,0.5552,0.7855,61.0352,36.7432,-32.0435,0,0,0,1,0
29.520,100.426,250,52,40,53,124,-0.0757,0.4564,0.7802,82.8247,-0.1831,-10.0708,0,0,0,1,0
29.520,100.427,253,45,30,34,92,-0.1442,0.4476,0.9618,77.5146,4.6387,-18.4326,0,0,0,1,0
29.510,100.424,250,40,26,27,80,-0.0590,0.1262,0.9083,57.9834,40.7715,-123.9014,1,0,0,0,0
29.500,100.428,251,38,24,25,74,0.0532,-0.1656,0.8883,33.9966,-39.4897,-162.8418,0,0,1,0,0
29.510,100.368,252,37,24,24,72,-0.2004,-0.1183,1.1062,9.3994,-58.4717,-103.5767,0,0,1,0,0
29.520,100.422,249,36,23,23,70,-0.1208,-0.2048,1.0232,99.1821,23.4985,73.1201,0,0,1,0,0
29.500,100.430,252,35,22,22,70,-0.0262,-0.1685,0.9479,-0.4272,16.9067,13.5498,0,0,1,0,0
29.500,100.435,252,35,22,22,70,-0.0508,-0.2281,0.9974,3.1738,6.1646,6.2256,0,0,1,0,0
29.500,100.432,251,35,22,22,69,0.0372,-0.3247,0.9863,10.3760,16.9678,15.0757,0,0,1,0,0
29.490,100.431,251,35,22,22,69,0.0868,-0.2186,0.8837,22.8882,10.1318,31.9824,0,0,1,0,0
29.500,100.401,251,35,22,22,70,0.0739,-0.2841,0.9572,-20.8130,-18.9209,-16.5405,0,0,1,0,0
29.500,100.396,249,35,22,22,69,0.0369,-0.2946,0.9778,13.7329,0.9155,14.5874,0,0,1,0,0
29.490,100.424,251,35,22,22,70,0.0875,-0.2775,0.9150,-2.6855,10.8643,2.5635,0,0,1,0,0
29.490,100.430,250,36,22,22,69,0.0833,-0.3093,0.9303,-7.8735,-3.3569,-3.8452,0,0,1,0,0
29.510,100.433,249,35,22,22,69,0.0895,-0.3068,0.9429,2.5024,3.6011,4.2725,0,0,1,0,0
29.500,100.430,250,35,22,22,70,0.0980,-0.2850,0.9430,-14.8926,4.0894,-3.6011,0,0,1,0,0
29.500,100.431,251,35,22,22,69,0.1080,-0.3156,0.9191,7.8735,8.7280,4.8218,0,0,1,0,0
29.510,100.303,251,35,22,22,69,0.1118,-0.2847,0.9414,1.4648,3.9673,3.5400,0,0,1,0,0
29.520,100.424,250,35,22,22,69,0.1667,-0.3605,0.9371,49.3774,37.4146,34.7900,0,0,1,0,0
29.520,100.432,250,35,21,22,70,0.2631,-0.3464,0.7961,8.9722,-2.7466,9.2773,0,0,1,0,0
29.530,100.432,252,36,22,22,71,0.1930,-0.4147,0.9319,-16.5405,-10.8032,-17.4561,0,0,1,0,0
29.510,100.427,252,36,22,22,70,0.2201,-0.3995,0.8772,1.8311,8.1787,3.5400,0,0,1,0,0
29.510,100.427,251,36,22,22,70,0.2119,-0.3993,0.8846,-8.9111,-1.7700,-5.7373,0,0,1,0,0
29.510,100.430,250,35,21,22,70,0.2175,-0.4014,0.8788,3.9673,4.0283,3.5400,0,0,1,0,0
29.510,100.367,249,36,21,22,70,0.2317,-0.3984,0.8704,-0.4883,3.4790,2.5024,0,0,1,0,0
29.520,100.423,252,35,21,22,71,0.2389,-0.3960,0.8668,-1.0986,-0.0610,3.4790,0,0,1,0,0
29.530,100.424,250,35,21,22,70,0.2422,-0.4054,0.8817,-2.8076,2.2583,1.7090,0,0,1,0,0
29.540,100.433,249,35,21,22,70,0.2443,-0.4167,0.8804,0.1831,3.6011,1.5259,0,0,1,0,0
29.540,100.420,252,35,21,22,70,0.2587,-0.4148,0.8818,10.6812,14.4043,10.8643,0,0,1,0,0
29.530,100.427,252,35,21,21,69,0.3391,-0.4181,0.7814,-1.8311,0.9155,-1.2817,0,0,1,0,0
29.520,100.365,252,35,21,21,69,0.2551,-0.4373,0.8783,-9.0942,-5.8594,-4.9438,0,0,1,0,0
29.540,100.427,251,35,21,21,69,0.3033,-0.4357,0.8213,6.7749,6.4087,4.6387,0,0,1,0,0
29.550,100.429,252,35,21,21,69,0.2823,-0.4219,0.8361,-8.5449,-5.0659,-3.8452,0,0,1,0,0
29.530,100.434,248,35,21,21,69,0.2832,-0.4391,0.8513,0.0610,1.8921,-1.7090,0,0,1,0,0
29.540,100.429,250,35,21,21,69,0.2944,-0.4304,0.8311,-3.1738,0.4272,0.3052,0,0,1,0,0
29.540,100.426,252,35,21,21,69,0.2920,-0.4404,0.8381,-2.8076,2.6245,-2.3193,0,0,1,0,0
29.520,100.425,251,35,21,21,69,0.2974,-0.4314,0.8461,0.4272,4.2725,-0.7324,0,0,1,0,0
29.550,100.378,253,35,21,21,69,0.3171,-0.4243,0.8154,0.3052,0.9155,0.4883,0,0,1,0,0
29.530,100.426,251,35,21,21,69,0.2996,-0.4406,0.8436,-3.4180,-0.5493,-2.1362,0,0,1,0,0
29.540,100.428,250,35,21,21,69,0.2996,-0.4302,0.8436,-1.7090,1.6479,-0.2441,0,0,1,0,0
29.540,100.436,251,35,21,21,69,0.3066,-0.4238,0.8374,-10.4980,4.7607,-5.3101,0,0,1,0,0
29.540,100.429,252,34,21,21,68,0.3129,-0.4209,0.8331,1.7700,2.0142,3.3569,0,0,1,0,0
29.520,100.429,250,34,21,21,68,0.3147,-0.4087,0.8203,-3.0518,-0.6104,-0.9155,0,0,1,0,0
29.530,100.374,251,34,21,21,68,0.3010,-0.4264,0.8612,0.4272,-0.9155,-1.0376,0,0,1,0,0
29.540,100.424,251,34,21,21,69,0.3020,-0.4163,0.8518,-2.7466,-3.4180,1.4038,0,0,1,0,0
29.520,100.424,251,34,21,21,68,0.3068,-0.4126,0.8282,0.5493,0.9155,0.4883,0,0,1,0,0
29.530,100.426,250,34,21,21,68,0.3256,-0.4197,0.8409,-3.6011,0.2441,-0.4883,0,0,1,0,0
29.510,100.422,251,34,21,21,68,0.3054,-0.4055,0.8479,-2.0752,-4.0894,0.1831,0,0,1,0,0
29.510,100.428,253,34,21,21,68,0.3107,-0.4094,0.8363,-1.9531,0.9766,0.3052,0,0,1,0,0
29.520,100.429,250,34,21,21,68,0.3062,-0.4033,0.8507,-5.3711,-2.1973,-1.5869,0,0,1,0,0
29.510,100.314,252,34,21,21,69,0.3099,-0.4152,0.8462,0.2441,-1.0986,1.4648,0,0,1,0,0
29.540,100.428,251,34,21,21,69,0.3005,-0.3955,0.8347,-4.7607,-2.0142,-3.1128,0,0,1,0,0
29.530,100.433,251,34,21,21,69,0.3010,-0.4098,0.8458,-2.2583,-2.4414,-1.0376,0,0,1,0,0
29.540,100.427,250,34,21,21,69,0.2939,-0.4030,0.8611,-2.8687,1.8311,-1.8311,0,0,1,0,0
29.550,100.434,251,34,21,21,68,0.2880,-0.4076,0.8497,-2.5635,-3.9673,-3.7231,0,0,1,0,0
29.540,100.431,251,34,21,21,68,0.3003,-0.3994,0.8407,-1.0986,-4.3335,-1.8311,0,0,1,0,0
29.540,100.358,250,35,21,21,69,0.3542,-0.3505,0.7633,-21.1182,-39.6729,-19.2261,0,0,1,0,0
29.520,100.418,250,36,22,22,70,-0.0283,-0.3217,0.9473,-90.2100,-105.8350,-62.2559,0,0,1,0,0
29.540,100.425,252,35,22,22,68,-0.2096,-0.2146,1.1101,46.9360,19.1650,51.3916,0,0,1,0,0
29.520,100.426,251,36,22,22,70,0.0134,-0.2703,0.8510,8.6060,-7.1411,-20.8740,0,0,1,0,0
29.510,100.422,248,36,22,22,69,-0.1405,-0.3784,0.9620,-10.3760,-0.7324,-32.7759,0,0,1,0,0
29.500,100.424,250,36,22,22,70,-0.0951,-0.3889,0.8313,32.4707,22.8882,5.3711,0,0,1,0,0
29.500,100.428,251,36,22,22,71,-0.0814,-0.4895,0.8608,3.2349,-1.5259,-26.4893,0,0,1,0,0
29.500,100.353,250,36,22,22,71,-0.0636,-0.4835,0.9243,2.1973,-3.7842,2.3193,0,0,1,0,0
29.520,100.428,250,36,22,22,71,-0.0767,-0.4265,0.8815,-0.7935,3.1128,1.0376,0,0,1,0,0
29.520,100.430,252,36,22,22,71,-0.0717,-0.4484,0.8909,-0.6104,0.4883,1.3428,0,0,1,0,0
29.530,100.434,251,36,22,22,72,-0.0580,-0.4479,0.8892,-2.5024,-1.9531,1.7700,0,0,1,0,1
29.520,100.422,252,36,22,22,72,-0.0430,-0.4425,0.8600,5.7373,0.7935,0.2441,0,0,1,0,1
29.500,100.426,250,37,22,22,72,-0.0721,-0.4558,0.9037,-9.9487,-8.0566,-6.1646,0,0,1,0,1
29.500,100.351,250,36,22,22,71,-0.0604,-0.4482,0.8740,4.6997,5.0049,3.8452,0,0,1,0,1
29.520,100.421,252,36,22,22,71,-0.0957,-0.4716,0.8811,-32.1655,-12.1460,-26.0620,0,0,1,0,1
29.520,100.424,251,36,22,22,69,-0.2240,-0.5249,0.9330,-108.3984,-47.6074,-79.1626,0,0,1,0,1
29.520,100.435,251,34,22,22,67,-0.3618,-0.0448,1.1145,-84.1675,23.4985,-4.5776,1,0,0,0,1
29.510,100.426,251,39,26,26,75,-0.0612,0.2047,0.7183,-109.6191,90.3931,7.5684,0,0,0,1,1
29.520,100.433,251,53,50,48,108,0.1229,0.6455,0.6678,-177.4902,10.6812,77.6978,0,0,0,1,1
29.510,100.428,251,122,118,123,307,-0.2451,0.7799,0.5559,-26.9775,110.5957,54.9316,0,0,0,1,1
29.490,100.361,253,127,120,129,335,-0.1995,0.8223,0.7639,-23.0713,-66.2231,51.3306,0,0,0,1,1
29.510,100.433,252,147,132,139,377,-0.1188,0.6051,0.5709,22.7051,57.0068,-10.1318,0,0,0,1,1
29.510,100.421,252,117,114,125,317,-0.1282,0.7108,0.7430,-9.8267,-15.6860,15.2588,0,0,0,1,1
29.490,100.428,251,117,114,125,318,-0.1511,0.6124,0.7350,4.6997,-2.6245,8.7891,0,0,0,1,1
29.510,100.426,250,114,112,123,309,-0.1387,0.6025,0.7471,2.5024,13.2446,-5.1880,0,0,0,1,1
29.520,100.429,250,106,106,118,290,-0.1307,0.6232,0.7612,-4.2114,3.0518,5.0049,0,0,0,1,1
29.520,100.411,251,104,105,117,285,-0.1278,0.6344,0.7377,-6.7749,1.4038,4.4556,0,0,0,1,1
29.510,100.403,252,103,104,116,283,-0.1267,0.6067,0.7544,2.9907,0.3052,-1.2817,0,0,0,1,1
29.510,100.429,253,101,103,116,279,-0.1250,0.5990,0.7484,-3.2959,3.6011,0.1221,0,0,0,1,1
29.510,100.426,252,97,100,114,269,-0.1173,0.6014,0.7560,-5.1270,-0.9766,-0.9766,0,0,0,1,1
29.500,100.427,251,97,100,114,269,-0.1222,0.5846,0.7563,0.0000,1.2207,0.9766,0,0,0,1,1
29.520,100.431,249,96,99,113,264,-0.1365,0.5991,0.7677,-5.0049,0.9766,-1.2817,0,0,0,1,1
29.510,100.426,251,95,98,112,261,-0.1210,0.5975,0.7476,-3.3569,-0.1831,1.5259,0,0,0,1,1
29.510,100.371,252,94,97,111,259,-0.1234,0.5809,0.7719,-0.3662,-0.2441,-0.6104,0,0,0,1,1
29.510,100.421,251,93,96,111,255,-0.1315,0.5994,0.7683,-2.8687,0.0000,1.7090,0,0,0,1,1
29.510,100.423,252,92,95,110,253,-0.1162,0.5828,0.7677,0.2441,-0.3662,0.3052,0,0,0,1,1
29.510,100.429,251,91,95,110,250,-0.1302,0.5836,0.7878,1.7700,-1.8921,1.2817,0,0,0,1,1
29.500,100.425,250,89,93,109,245,-0.1244,0.5767,0.7792,3.7231,0.4883,3.1738,0,0,0,1,1
29.520,100.422,252,85,90,106,232,-0.1313,0.5679,0.7855,6.2256,4.8828,2.1362,0,0,0,1,1
29.500,100.425,252,77,81,98,205,-0.1567,0.6066,0.7772,62.2559,3.9062,32.0435,0,0,0,1,1
29.490,100.313,251,53,46,56,125,-0.0741,0.5005,0.8246,92.8955,4.1504,12.8784,0,0,0,1,1
29.510,100.428,252,44,30,32,89,-0.0851,0.2211,0.8529,16.9067,-11.3525,-66.1011,1,0,0,0,1
29.530,100.426,251,42,29,29,85,-0.1237,0.0983,0.9199,45.1050,23.7427,-18.3105,1,0,0,0,1
29.510,100.431,251,39,26,27,78,-0.2141,0.0037,0.8953,15.6860,-21.3013,-10.4370,1,0,0,0,1
29.510,100.427,252,39,26,26,76,-0.2737,0.0751,1.1097,-30.3955,-32.0435,-21.5454,1,0,0,0,1
29.510,100.420,251,40,27,27,79,-0.1747,0.1515,0.8738,23.0713,64.6973,18.4326,1,0,0,0,1
29.500,100.305,251,39,26,27,77,-0.0463,0.1735,0.9576,-13.7939,-17.0898,10.4370,1,0,0,0,1
29.490,100.422,252,40,27,27,79,-0.1650,0.1531,0.9659,-27.6489,-6.1646,-19.0430,1,0,0,0,1
29.510,100.424,252,41,28,28,80,-0.1542,0.1503,0.9910,12.6953,6.7749,5.9204,1,0,0,0,1
29.510,100.433,251,40,27,28,80,-0.1113,0.1537,0.9417,-6.0425,5.0659,2.0752,1,0,0,0,1
29.510,100.427,251,40,27,28,80,-0.1272,0.1549,0.9657,0.4272,-0.4272,0.7324,1,0,0,0,1
29.490,100.422,252,40,27,27,79,-0.1178,0.1309,0.9650,2.3193,6.2866,-2.4414,1,0,0,0,1
29.500,100.433,252,40,27,27,79,-0.1179,0.1190,0.9625,-6.9580,-5.3711,-2.3804,1,0,0,0,1
29.490,100.363,252,40,27,27,79,-0.1039,0.1100,0.9633,8.2397,3.7842,0.8545,1,0,0,0,1
29.490,100.425,252,40,26,27,78,-0.0995,0.1052,0.9459,-3.9673,4.8828,-2.6245,1,0,0,0,1
29.490,100.427,251,40,26,27,78,-0.1141,0.1378,0.9915,-7.0190,-12.6343,1.7700,1,0,0,0,1
29.500,100.423,252,39,26,27,78,-0.0878,0.0922,0.9825,-6.2256,8.3008,-14.3433,1,0,0,0,1
29.500,100.427,250,40,27,27,79,-0.0841,0.1083,0.9645,8.8501,8.3618,5.5542,1,0,0,0,1
29.510,100.425,251,39,26,27,78,-0.0459,0.1169,0.9323,-7.6294,-2.5635,0.4272,1,0,0,0,1
29.520,100.351,250,40,26,27,78,-0.0728,0.0972,0.9482,-1.5259,2.5635,-1.3428,1,0,0,0,1
29.510,100.423,251,40,26,27,78,-0.1250,0.1683,1.0217,10.6201,-0.7324,2.5635,1,0,0,0,1
29.510,100.426,251,39,26,27,78,-0.0270,0.0408,0.9684,-25.4517,12.2070,-21.9116,0,0,1,0,1
29.510,100.427,253,40,26,27,78,-0.0558,0.1528,0.9044,28.5645,-1.9531,32.8369,1,0,0,0,1
29.520,100.425,251,39,26,26,77,-0.1031,0.0945,1.0304,-44.3115,-14.2212,-39.0625,1,0,0,0,1
29.530,100.429,253,40,27,27,79,-0.0554,0.1006,0.9611,27.1606,10.4980,28.8696,1,0,0,0,1
29.530,100.427,250,39,26,26,78,-0.0494,0.1333,0.9458,-11.9629,-0.0610,-8.0566,1,0,0,0,1
29.540,100.360,251,40,27,27,79,-0.0763,0.1407,0.9858,8.9722,3.2349,1.5259,1,0,0,0,1
29.530,100.432,251,40,26,27,78,-0.0507,0.1053,0.9695,-1.2817,-1.2207,-4.8218,1,0,0,0,1
29.510,100.422,252,40,26,27,78,-0.0560,0.1057,0.9844,-1.7090,-1.2207,1.1597,1,0,0,0,1
29.530,100.426,250,40,26,27,78,-0.0713,0.1254,0.9749,0.1221,2.4414,2.1973,1,0,0,0,1
29.530,100.430,251,40,26,27,78,-0.0472,0.1106,0.9591,-0.1221,1.4648,-2.3193,1,0,0,0,1
29.540,100.429,252,40,26,27,78,-0.0746,0.1245,1.0004,-9.1553,-7.8125,-1.5869,1,0,0,0,1
29.510,100.397,251,40,26,27,78,-0.0568,0.1133,0.9565,3.7231,3.4180,3.5400,1,0,0,0,1
29.530,100.387,251,40,26,27,78,-0.0643,0.1118,0.9773,-2.3804,-3.0518,-3.5400,1,0,0,0,1
29.540,100.427,252,40,26,27,78,-0.0524,0.1027,0.9731,0.0610,5.1880,1.9531,1,0,0,0,1
29.540,100.422,251,40,26,27,79,-0.0533,0.1371,0.9591,-1.2817,-0.3662,3.2959,1,0,0,0,1
29.540,100.429,251,40,26,27,79,-0.0643,0.1040,0.9823,-5.0049,-5.0049,-6.2866,1,0,0,0,1
29.530,100.424,251,40,26,27,79,-0.0547,0.0953,0.9679,2.8076,-0.4272,2.2583,1,0,0,0,1
29.520,100.429,249,40,26,27,79,-0.0629,0.1147,0.9768,-0.0610,3.4180,0.9766,1,0,0,0,1
29.540,100.371,252,40,26,27,78,-0.0710,0.1162,0.9895,-3.2959,-2.2583,-2.1362,1,0,0,0,1
29.530,100.433,251,40,26,27,79,-0.0560,0.0872,0.9751,-2.7466,-1.2207,0.9766,1,0,0,0,1
29.530,100.421,249,40,26,27,79,-0.0330,0.1063,0.9310,6.8359,4.6997,4.4556,1,0,0,0,1
29.530,100.429,251,40,26,27,79,-0.0947,0.1399,1.0026,-8.6060,-3.2349,-4.0894,1,0,0,0,1
29.540,100.427,252,40,27,27,79,-0.0394,0.1100,0.9596,0.3662,1.0986,2.0142,1,0,0,0,1
29.540,100.427,252,40,26,27,79,-0.0648,0.1014,0.9761,0.0610,-1.5259,-2.4414,1,0,0,0,1
29.530,100.426,251,40,26,27,79,-0.0664,0.1047,0.9839,-1.9531,0.4272,0.1831,1,0,0,0,1
29.530,100.344,253,40,27,27,79,-0.0594,0.1165,0.9661,-3.1738,-1.8921,-0.6104,1,0,0,0,1
29.530,100.425,251,40,27,27,79,-0.0635,0.1058,0.9769,0.0000,0.0000,0.2441,1,0,0,0,1
29.520,100.430,251,40,26,27,79,-0.0522,0.1179,0.9635,-2.8687,2.3193,-0.3052,1,0,0,0,1
29.520,100.425,252,40,27,27,79,-0.0568,0.1132,0.9828,-0.9155,-0.4272,-0.4272,1,0,0,0,1
29.510,100.425,250,40,26,27,79,-0.0585,0.1160,0.9724,-2.2583,-1.1597,0.6714,1,0,0,0,1
29.510,100.424,252,40,26,27,79,-0.0522,0.1036,0.9783,-6.5918,-2.3804,-2.2583,1,0,0,0,1
29.500,100.298,250,40,26,27,79,-0.0552,0.1206,0.9742,3.4180,0.9766,2.8687,1,0,0,0,1
29.500,100.425,252,40,26,27,79,-0.0542,0.1035,0.9734,-3.7231,-0.7324,-2.1973,1,0,0,0,1
29.510,100.427,251,40,26,27,79,-0.0486,0.1127,0.9659,4.5166,1.7700,1.4648,1,0,0,0,1
29.520,100.425,251,40,26,27,79,-0.0559,0.1034,0.9824,-5.3101,-2.0752,-2.7466,1,0,0,0,1
29.510,100.425,248,40,26,27,79,-0.0533,0.1080,0.9761,-1.3428,-0.9766,1.7090,1,0,0,0,1
29.500,100.425,250,40,26,27,79,-0.0664,0.1178,0.9841,-5.9204,-4.3335,-1.3428,1,0,0,0,1
29.500,100.430,250,40,26,27,79,-0.0543,0.1024,0.9645,1.0376,-0.3662,1.0376,1,0,0,0,1
29.510,100.365,252,40,26,27,79,-0.0565,0.1005,0.9783,-3.4790,-0.2441,-2.6245,1,0,0,0,1
29.500,100.425,250,40,26,27,78,-0.0562,0.1028,0.9799,-5.3711,-0.7324,0.8545,1,0,0,0,1
29.500,100.417,251,40,26,27,79,-0.0570,0.1130,0.9734,-0.8545,-1.1597,1.5259,1,0,0,0,1
29.500,100.426,252,40,26,27,79,-0.0590,0.1095,0.9769,-3.4180,-0.7324,-1.5869,1,0,0,0,1
29.510,100.431,251,40,26,27,79,-0.0508,0.1111,0.9686,0.1831,0.5493,1.7090,1,0,0,0,1
29.500,100.422,250,40,26,27,79,-0.0657,0.1061,0.9886,-4.2114,-1.5869,-2.1362,1,0,0,0,1
29.510,100.366,251,40,26,27,79,-0.0559,0.1140,0.9673,-3.4790,0.1831,2.7466,1,0,0,0,1
29.490,100.416,253,40,26,27,79,-0.0531,0.1147,0.9733,-1.4648,-1.2207,-0.9155,1,0,0,0,1
29.510,100.425,252,40,27,27,79,-0.0475,0.1017,0.9685,-0.6714,-0.4272,-0.5493,1,0,0,0,1
29.510,100.425,251,40,27,27,79,-0.0604,0.1163,0.9799,-1.8311,0.6714,2.1973,1,0,0,0,1
29.510,100.428,251,40,26,27,79,-0.0546,0.1240,0.9702,-2.4414,-2.8687,-1.4648,1,0,0,0,1
29.510,100.422,250,40,26,27,79,-0.0557,0.0814,1.0004,-7.2632,-0.6104,-0.7935,1,0,0,0,1
29.520,100.424,250,40,27,27,79,-0.0233,0.1055,0.9578,4.8828,-0.2441,16.2354,1,0,0,0,1
29.510,100.366,251,40,27,27,79,-0.0924,0.1023,0.9703,-18.5547,3.5400,-11.1694,1,0,0,0,1
29.520,100.425,251,41,27,28,81,-0.0388,0.1406,0.9672,10.0098,2.5024,22.1558,1,0,0,0,1
29.530,100.426,251,41,27,28,80,-0.0557,0.1698,0.9623,-15.8081,-6.7749,0.0610,1,0,0,0,1
29.520,100.428,252,41,27,28,81,-0.0598,0.1714,0.9717,2.5024,-0.5493,3.1128,1,0,0,0,1
29.530,100.426,252,41,27,28,81,-0.0574,0.1381,0.9657,-2.3804,2.9297,-7.5073,1,0,0,0,1
29.530,100.428,249,41,27,28,81,-0.0409,0.1420,0.9750,5.1880,0.7324,2.8687,1,0,0,0,1
29.530,100.386,251,41,27,28,81,-0.0475,0.1366,0.9783,-6.6528,-2.1362,-4.7607,1,0,0,0,1
29.530,100.409,251,41,27,28,81,-0.0422,0.1526,0.9579,2.3804,3.7231,4.2725,1,0,0,0,1
29.520,100.430,251,41,27,28,81,-0.0365,0.1335,0.9664,-1.5869,-1.2207,-3.7231,1,0,0,0,1
29.520,100.422,252,41,27,28,81,-0.0493,0.1649,0.9664,5.4321,4.6387,3.5400,1,0,0,0,1
29.520,100.420,251,41,27,28,80,-0.0392,0.1062,1.0005,-11.9629,-2.3804,-16.1133,1,0,0,0,1
29.540,100.422,251,41,27,28,81,-0.0479,0.1975,1.0187,13.1836,12.2070,8.7891,0,0,0,1,1
29.550,100.422,247,40,27,27,80,0.0494,0.0602,0.8958,-17.1509,13.9771,-18.1274,0,0,1,0,1
29.520,100.324,251,41,27,27,80,0.0244,0.1542,0.9480,8.4839,-2.6855,10.7422,0,0,0,1,1
29.530,100.428,251,40,27,27,80,0.0121,0.1310,0.9860,-2.1362,-5.0659,-4.6387,0,1,0,0,1
29.540,100.425,252,40,27,27,80,0.0002,0.1134,0.9711,-4.6997,-2.6245,-4.1504,0,0,1,0,1
29.540,100.423,252,40,27,27,80,0.0522,0.1140,0.9202,2.3193,2.5024,5.6763,0,1,0,0,1
29.540,100.428,249,40,27,27,80,0.0028,0.0985,1.0288,-41.3818,-32.4707,-7.6904,0,0,1,0,1
29.540,100.426,251,42,28,28,83,-0.1177,0.2576,0.9424,49.2554,28.0151,44.2505,0,0,0,1,1
29.550,100.428,252,40,26,27,79,0.0156,0.1118,0.9845,-40.4053,-12.4512,-41.3208,0,0,1,0,1
29.550,100.371,250,42,28,29,83,-0.0480,0.1752,0.9559,32.4097,15.6860,30.7007,1,0,0,0,1
29.540,100.427,250,40,27,27,79,-0.0403,0.2062,0.9779,1.5869,2.9297,-14.4653,0,0,0,1,1
29.540,100.427,251,40,27,27,80,0.0436,0.0143,0.9625,-12.3901,-5.4932,-28.1372,0,0,1,0,1
29.540,100.434,249,40,27,27,80,-0.0133,0.1678,0.9933,11.4746,7.1411,20.3857,0,0,0,1,1
29.560,100.435,253,40,26,27,79,-0.0281,0.2023,0.9747,2.3804,-0.8545,-9.5215,0,0,0,1,1
29.530,100.431,250,40,27,27,79,0.0259,0.0746,0.9701,-4.9438,-0.5493,-24.9023,0,0,1,0,1
29.550,100.340,249,40,27,27,79,0.0273,0.0686,0.9849,4.0283,9.6436,-5.9204,0,0,1,0,1
29.550,100.429,253,40,26,27,78,0.0245,0.0956,0.9547,1.8921,-8.0566,14.3433,0,0,1,0,1
29.540,100.428,253,40,26,27,79,-0.0048,0.1454,0.9828,-5.0659,2.2583,0.7935,0,0,0,1,1
29.540,100.428,251,40,27,27,79,0.0193,0.1281,0.9357,0.6104,4.6387,1.4648,0,1,0,0,1
29.550,100.427,252,40,26,27,79,0.0048,0.1210,0.9746,-12.5732,1.8311,-6.3477,0,0,1,0,1
29.540,100.425,252,40,27,27,79,0.0441,0.1038,0.9459,-7.1411,-6.2866,9.0332,0,1,0,0,1
29.560,100.437,249,40,27,27,80,0.0164,0.1818,0.9967,-8.6060,2.5635,-1.2207,0,0,0,1,1
29.530,100.369,251,42,28,28,83,-0.0039,0.1603,0.9685,-24.0479,-2.8076,3.7231,0,0,0,1,1
29.530,100.429,252,42,28,29,84,0.0101,0.2191,0.9205,13.6719,8.4839,22.1558,0,0,0,1,1
29.530,100.430,248,42,28,29,83,0.0192,0.2548,0.9595,-11.2305,-12.5122,8.2397,0,0,0,1,1
29.520,100.426,253,42,28,29,84,-0.0508,0.2216,0.9736,-4.2114,8.1787,-7.5684,0,0,0,1,1
29.530,100.428,253,42,28,29,83,0.0084,0.2333,0.9265,12.2070,-1.0986,5.1880,0,0,0,1,1
29.540,100.431,251,41,27,28,82,0.0322,0.2196,0.9419,27.1606,-2.0142,-5.6763,0,0,0,1,1
29.530,100.364,250,40,27,27,80,-0.0277,0.1095,0.9994,-4.5166,11.1694,-42.4194,1,0,0,0,1
29.520,100.426,252,40,26,26,78,0.0935,0.0278,0.9744,6.0425,-7.8735,4.8218,0,0,1,0,1
29.540,100.430,252,39,26,26,77,0.0684,0.0684,0.9747,-3.0518,7.8735,-10.9863,0,1,0,0,1
29.540,100.432,250,39,26,26,77,0.0559,0.0708,0.9734,1.8921,1.2207,3.9673,0,0,1,0,1
29.530,100.424,253,39,25,26,77,0.0551,0.1140,0.9705,1.3428,-1.2817,1.7700,0,1,0,0,1
29.540,100.427,252,39,26,26,77,0.0627,0.0443,0.9897,-5.0049,-2.3804,-10.3760,0,0,1,0,1
29.530,100.430,248,40,26,26,78,0.1012,-0.0831,1.0239,-44.5557,-18.7378,-19.9585,0,0,1,0,1
29.540,100.367,251,43,29,29,85,-0.1051,0.1322,0.6127,2.5635,-25.8179,84.7168,1,0,0,0,1
29.510,100.420,250,40,27,27,78,-0.4203,0.4895,1.1670,-27.9541,-85.1440,102.2339,1,0,0,0,1
29.520,100.424,251,40,27,27,78,-0.3765,0.1522,0.6726,-18.0664,-43.7012,-114.8071,1,0,0,0,0
29.530,100.427,252,37,25,25,71,-0.4314,0.2760,0.8500,1.8921,-80.5664,61.4624,1,0,0,0,0
29.530,100.434,250,34,23,23,67,-0.5521,0.3416,1.0624,-24.4751,-5.6763,-2.1973,1,0,0,0,0
29.530,100.422,252,36,25,24,71,-0.5171,0.0643,0.6333,6.7139,11.9019,-8.6060,1,0,0,0,0
29.530,100.388,251,35,25,24,70,-0.5192,0.2086,0.9556,-16.5405,17.7612,-5.6763,1,0,0,0,0
29.540,100.406,250,37,25,25,71,-0.5170,0.1831,0.8057,-6.5308,-7.0190,20.6299,1,0,0,0,0
29.540,100.430,251,37,25,25,71,-0.4855,0.1675,0.8424,-3.9673,10.7422,-7.8125,1,0,0,0,0
29.530,100.423,252,37,26,25,73,-0.4812,0.1902,0.8406,2.0752,6.6528,5.4932,1,0,0,0,0
29.530,100.428,251,37,26,25,73,-0.4852,0.1725,0.8528,0.2441,3.0518,-5.5542,1,0,0,0,0
29.520,100.430,252,37,26,25,72,-0.4535,0.1516,0.8634,-1.4038,1.2817,-1.0376,1,0,0,0,0
29.520,100.428,251,37,26,25,72,-0.4891,0.2036,0.8571,4.2114,0.8545,2.8687,1,0,0,0,0
29.530,100.293,251,37,26,25,72,-0.4531,0.2736,0.8993,9.3994,1.0986,5.0659,1,0,0,0,0
29.520,100.423,249,37,26,25,72,-0.4144,0.3269,0.8242,42.6636,48.3398,-1.5869,1,0,0,0,0
29.510,100.417,251,36,24,24,69,-0.3585,0.0397,0.8927,-25.2075,11.5356,-85.6323,1,0,0,0,0
29.530,100.421,251,36,24,23,69,-0.3198,-0.0525,0.9420,30.6396,14.0381,-17.0288,1,0,0,0,0
29.530,100.422,251,35,23,22,68,-0.2800,-0.0588,0.8811,26.1841,27.0386,-23.1934,1,0,0,0,0
29.540,100.424,250,35,23,22,67,-0.2841,-0.1528,0.9309,-16.2964,-12.2070,-20.7520,1,0,0,0,0
29.530,100.428,251,35,23,22,67,-0.2657,0.0481,0.9818,23.1323,10.3149,34.9121,1,0,0,0,0
29.530,100.365,251,35,23,22,68,-0.2471,0.0123,0.9606,-22.3999,-5.3101,-17.6392,1,0,0,0,0
29.550,100.427,250,35,23,22,68,-0.2401,-0.0365,0.9436,9.9487,4.8828,2.6855,1,0,0,0,0
29.520,100.424,252,35,23,22,68,-0.2399,-0.0107,0.9985,-24.5361,1.2817,-6.7749,1,0,0,0,0
29.530,100.428,253,36,24,23,68,-0.2101,0.0371,0.9419,-3.5400,1.7700,10.8643,1,0,0,0,0
29.530,100.424,251,35,23,23,68,-0.2228,0.0217,0.9476,-4.2114,7.0190,-7.4463,1,0,0,0,0
29.540,100.428,252,36,23,23,68,-0.2173,0.0271,0.9889,1.0376,-2.5635,-0.1221,1,0,0,0,0
29.540,100.359,251,36,24,23,69,-0.2076,0.0264,0.9614,-1.2207,4.6387,4.6387,1,0,0,0,0
29.530,100.427,252,36,24,23,69,-0.2119,0.0336,0.9722,-7.1411,-1.7090,-2.3804,1,0,0,0,0
29.540,100.431,251,36,24,23,70,-0.2018,0.0223,0.9731,-4.8218,1.2207,3.2959,1,0,0,0,0
29.550,100.425,250,36,24,23,69,-0.1771,0.0404,0.9808,-19.4702,2.2583,-1.2207,1,0,0,0,0
29.560,100.426,251,36,24,23,71,-0.1903,0.0613,0.9744,-4.6997,-5.0659,5.5542,1,0,0,0,0
29.540,100.429,249,36,24,24,70,-0.2067,0.0874,0.9459,5.7983,19.1650,-1.2207,1,0,0,0,0
29.540,100.426,252,37,24,24,72,-0.1500,0.0198,0.9633,-24.2310,-10.9253,0.4272,1,0,0,0,0
29.550,100.366,250,37,25,24,71,-0.2067,0.1566,1.0024,6.6528,8.1787,31.4941,1,0,0,0,0
29.550,100.430,250,37,25,24,72,-0.1415,0.0513,0.9553,-24.7192,3.2349,-18.4937,1,0,0,0,0
29.560,100.428,251,38,25,25,73,-0.1281,0.0731,0.9115,20.3247,6.8359,11.1084,1,0,0,0,0
29.540,100.429,252,37,25,24,72,-0.1526,0.0616,1.0161,-15.9912,-7.9346,-17.3950,1,0,0,0,0
29.560,100.426,250,37,25,25,73,-0.1257,0.0916,0.9562,15.8081,8.1787,11.4136,1,0,0,0,0
29.550,100.432,251,37,25,24,72,-0.1400,0.0548,0.9696,-13.9160,0.0610,-12.4512,1,0,0,0,0
29.550,100.365,251,38,25,25,73,-0.1378,0.0948,0.9778,6.8970,3.7231,10.9253,1,0,0,0,0
29.560,100.420,252,37,25,25,74,-0.1375,0.1066,0.9641,-6.5918,-5.1880,-4.1504,1,0,0,0,0
29.540,100.421,251,37,25,25,73,-0.1349,0.0521,0.9781,-2.6855,0.4883,-4.3335,1,0,0,0,0
29.570,100.427,251,37,25,25,73,-0.1292,0.0966,0.9642,-2.3193,-0.0610,1.0986,1,0,0,0,0
29.550,100.423,250,37,25,25,72,-0.1442,0.0765,0.9883,-2.8076,-1.6479,-3.3569,1,0,0,0,0
29.560,100.425,253,37,25,25,72,-0.1305,0.0687,0.9700,-3.6011,-1.7090,-1.4038,1,0,0,0,0
29.540,100.430,251,37,25,25,73,-0.1365,0.0896,0.9656,2.1362,4.5166,5.5542,1,0,0,0,0
29.560,100.314,251,38,25,25,73,-0.1350,0.0975,0.9688,-5.9814,-0.1831,-0.8545,1,0,0,0,0
29.550,100.428,249,37,25,25,73,-0.1378,0.1028,0.9683,-3.1128,-0.0610,1.1597,1,0,0,0,0
29.550,100.434,252,37,25,25,73,-0.1299,0.0840,0.9673,-0.1221,-0.4883,0.2441,1,0,0,0,0
29.560,100.427,249,37,25,25,73,-0.1284,0.0925,0.9623,-1.9531,2.2583,1.2817,1,0,0,0,0
29.530,100.427,253,37,25,25,74,-0.1243,0.1057,0.9707,2.0142,3.0518,1.7700,1,0,0,0,0
29.540,100.428,251,38,25,25,73,-0.1245,0.0981,0.9766,-5.2490,-2.1362,-1.0986,1,0,0,0,0
29.550,100.321,252,38,25,25,73,-0.1252,0.0999,0.9746,2.3804,0.7935,2.9907,1,0,0,0,0
29.550,100.430,251,38,25,25,73,-0.1188,0.1045,0.9646,-2.1362,1.0986,1.5259,1,0,0,0,0
29.570,100.430,251,38,25,25,73,-0.1218,0.1035,0.9768,0.5493,-0.6714,0.9155,1,0,0,0,0
29.550,100.426,252,38,25,25,73,-0.1196,0.0986,0.9734,-1.7700,-0.3052,0.1221,1,0,0,0,0
29.570,100.429,250,38,25,25,73,-0.1116,0.0918,0.9684,-1.7090,-1.4648,-0.7324,1,0,0,0,0
29.540,100.428,250,38,25,25,74,-0.1200,0.0979,0.9696,-1.0986,2.5635,3.4180,1,0,0,0,0
29.550,100.430,251,38,25,25,73,-0.1182,0.1082,0.9799,-6.0425,-2.9297,-1.9531,1,0,0,0,0
29.550,100.362,251,38,26,25,74,-0.0831,-0.0125,1.0520,-50.3540,-16.5405,-23.4375,0,0,1,0,0
29.550,100.426,252,41,28,27,80,-0.1920,0.0890,0.9713,-96.1914,28.7476,-19.8975,1,0,0,0,0
29.550,100.423,251,53,52,50,112,-0.1683,0.5020,0.7513,-42.2363,55.1758,116.8213,0,0,0,1,0
29.550,100.428,250,65,67,78,167,-0.1549,0.7753,0.6428,29.1138,68.7866,99.1821,0,0,0,1,0
29.510,100.428,249,59,58,71,154,-0.1685,0.6327,0.8185,-42.3584,-56.0913,-19.3481,0,0,0,1,0
29.530,100.433,252,82,87,104,225,-0.1635,0.4862,0.8208,-0.9155,6.4697,-14.0381,0,0,0,1,0
29.530,100.375,251,73,77,94,196,-0.1217,0.5380,0.7799,22.1558,0.7935,14.6484,0,0,0,1,0
29.540,100.418,251,69,72,88,183,-0.1794,0.5281,0.8536,-6.6528,-6.7749,-10.3760,0,0,0,1,0
29.550,100.433,250,69,72,88,182,-0.1444,0.4586,0.8318,1.3428,4.3335,-3.6011,0,0,0,1,0
29.550,100.425,249,66,68,83,175,-0.1481,0.4983,0.8397,4.2114,-2.5024,8.9111,0,0,0,1,0
29.530,100.419,250,65,67,81,172,-0.1626,0.4897,0.8151,-2.8076,5.0659,-3.0518,0,0,0,1,0
29.540,100.428,251,64,66,79,168,-0.1582,0.5045,0.8490,4.7607,-0.4272,-0.1221,0,0,0,1,0
29.540,100.428,251,64,66,79,168,-0.1190,0.4452,0.8479,0.6104,2.9297,-3.2959,0,0,0,1,0
29.540,100.360,251,61,62,74,160,-0.1272,0.4849,0.8191,1.7700,4.1504,1.9531,0,0,0,1,0
29.540,100.425,251,61,61,73,158,-0.1379,0.4716,0.8600,-2.8687,-3.9062,-3.2959,0,0,0,1,0
29.530,100.423,253,61,60,71,156,-0.1437,0.4879,0.8442,12.5122,4.4556,4.2114,0,0,0,1,0
29.530,100.424,250,58,55,65,144,-0.1168,0.4788,0.8271,16.4185,9.5825,-5.2490,0,0,0,1,0
29.520,100.421,252,50,43,50,113,-0.1169,0.4431,0.9132,9.0332,6.4087,-25.1465,0,0,0,1,0
29.550,100.429,251,49,40,47,105,-0.1650,0.4219,1.1532,3.9062,71.5942,-34.3018,0,0,0,1,0
29.540,100.424,251,42,28,29,85,0.2347,0.2435,0.8301,56.7627,167.9687,-13.9160,0,1,0,0,0
29.540,100.353,249,32,20,21,65,0.5778,0.0536,0.6223,7.6904,82.0313,-32.4707,0,1,0,0,0
29.550,100.426,249,29,18,19,58,0.6793,0.0917,0.6318,-6.4087,24.1089,1.0376,0,1,0,0,0
29.540,100.425,248,28,17,18,55,0.6467,0.1819,0.6799,-19.5923,-19.4702,13.1836,0,1,0,0,0
29.540,100.427,247,29,18,19,58,0.6124,0.1731,0.7152,-7.7515,4.0283,-6.7749,0,1,0,0,0
29.540,100.416,246,29,18,19,58,0.6049,0.2245,0.7180,0.5493,-6.9580,11.5967,0,1,0,0,0
29.540,100.424,250,29,18,19,58,0.5724,0.2162,0.7793,-10.9863,-9.3384,-7.7515,0,1,0,0,0
29.540,100.364,247,29,18,20,59,0.5963,0.1610,0.7360,-1.5259,-1.1597,-0.9155,0,1,0,0,0
29.550,100.424,249,29,18,20,59,0.5806,0.1816,0.7496,4.8218,-0.3052,3.2349,0,1,0,0,0
29.550,100.423,247,29,19,20,59,0.5748,0.1934,0.7909,-2.9907,0.1221,-3.6621,0,1,0,0,0
29.550,100.424,249,29,18,19,59,0.5880,0.1908,0.7207,5.0659,-9.1553,10.5591,0,1,0,0,0
29.550,100.428,250,31,19,20,62,0.5568,0.1813,0.8051,-10.9863,-6.4087,-10.9253,0,1,0,0,0
29.550,100.423,251,32,20,21,63,0.5597,0.1869,0.8060,-1.5869,-1.7090,9.8267,0,1,0,0,0
29.530,100.421,249,32,20,21,63,0.6661,0.1829,0.6992,11.1694,14.0991,4.1504,0,1,0,0,0
29.530,100.341,247,32,20,21,64,0.4686,0.3295,0.8416,-24.3530,-20.3857,-9.4604,0,1,0,0,0
29.540,100.432,248,33,21,22,65,0.5758,0.0997,0.7897,-20.9351,-28.9307,-8.7280,0,1,0,0,0
29.550,100.425,250,34,22,23,69,0.5190,0.2177,0.8062,16.2964,11.5967,17.3950,0,1,0,0,0
29.560,100.423,250,33,21,22,66,0.5005,0.2533,0.7798,2.8076,2.5024,-0.9766,0,1,0,0,0
29.550,100.421,249,33,21,22,67,0.5203,0.1884,0.8184,-12.2681,-11.8408,-8.4839,0,1,0,0,0
29.560,100.418,248,34,21,23,68,0.5107,0.2057,0.7961,9.0942,4.7607,7.2632,0,1,0,0,0
29.550,100.299,248,34,21,22,67,0.5109,0.1946,0.7996,-5.9814,-0.7324,-6.7139,0,1,0,0,0
29.550,100.424,251,34,21,22,67,0.5128,0.2015,0.8083,-0.7324,1.4038,1.3428,0,1,0,0,0
29.550,100.425,249,33,21,22,67,0.5107,0.2067,0.8063,-4.8218,-4.7607,1.2817,0,1,0,0,0
29.550,100.424,249,34,21,22,68,0.5129,0.2040,0.7971,0.9155,1.2207,1.5869,0,1,0,0,0
29.550,100.422,249,33,21,22,68,0.5634,0.1901,0.7655,-1.7090,-5.7373,-1.7090,0,1,0,0,0
29.560,100.424,250,34,22,23,70,0.7440,0.2546,0.6583,4.6997,-15.5029,19.8975,0,1,0,0,0
29.550,100.424,248,35,22,23,70,0.4386,0.0889,0.5714,-35.1563,-133.4229,-37.2925,0,1,0,0,0
29.550,100.358,251,44,29,30,87,-0.1248,0.3798,1.1689,-76.5991,-144.8975,-42.4194,0,0,0,1,0
29.540,100.431,251,47,40,42,94,-0.3271,0.2932,0.9205,-3.7231,-10.6201,45.2881,1,0,0,0,0
29.540,100.425,250,45,34,37,89,-0.2463,0.4526,1.0021,-1.9531,-12.2070,25.3906,0,0,0,1,0
29.530,100.429,252,45,33,35,89,-0.1179,0.2749,0.8727,-5.6152,21.4233,-14.3433,0,0,0,1,0
29.520,100.431,250,44,31,32,87,-0.1807,0.3053,0.9010,14.4043,-5.4321,11.5967,1,0,0,0,0
29.510,100.427,250,43,29,30,85,-0.1388,0.2494,0.9607,15.3198,5.4321,-3.0518,1,0,0,0,0
29.510,100.354,250,42,28,29,83,-0.1118,0.2302,0.9221,8.4229,5.9204,7.6294,1,0,0,0,0
29.520,100.422,251,41,28,28,82,-0.1177,0.2087,0.9269,3.6011,-0.4272,-1.7700,1,0,0,0,0
29.530,100.423,250,41,28,28,81,-0.1136,0.1970,0.9602,1.0986,0.0000,-2.5024,1,0,0,0,0
29.540,100.430,249,41,28,28,81,-0.1338,0.1868,0.9724,3.2959,-1.0376,2.0752,1,0,0,0,0
29.540,100.425,250,40,27,28,80,-0.1263,0.1727,0.9515,-1.8921,1.4648,0.1831,1,0,0,0,0
29.540,100.424,250,41,27,28,80,-0.1155,0.1622,0.9581,1.4648,-3.4180,-3.0518,1,0,0,0,0
29.550,100.437,250,40,27,28,80,-0.1367,0.1664,0.9556,2.0752,3.7231,1.8921,1,0,0,0,0
29.540,100.363,252,40,27,27,79,-0.1217,0.1573,0.9739,6.4087,4.8218,0.4272,1,0,0,0,0
29.550,100.432,252,40,27,27,79,-0.1013,0.1304,0.9510,9.1553,3.6621,2.3804,1,0,0,0,0
29.550,100.426,253,39,26,27,77,-0.1091,0.1326,0.9607,-1.9531,-6.8359,0.4883,1,0,0,0,0
29.570,100.423,251,39,26,26,77,-0.1193,0.1174,0.9681,-4.9438,-2.8687,-5.4321,1,0,0,0,0
29.550,100.427,251,39,26,26,77,-0.1124,0.1021,0.9594,6.1646,0.8545,-2.1362,1,0,0,0,0
29.550,100.424,249,39,26,26,77,-0.1121,0.0952,0.9777,2.7466,2.3804,-2.1973,1,0,0,0,0
29.550,100.366,251,39,26,26,76,-0.0854,0.0813,0.9694,-0.8545,-0.4883,-3.1738,1,0,0,0,0
29.540,100.423,249,39,26,26,76,-0.1101,0.1117,0.9611,5.4932,-0.7935,5.7373,1,0,0,0,0
29.540,100.420,251,38,26,26,75,-0.1359,0.1025,0.9724,8.6060,4.8218,-1.0986,1,0,0,0,0
29.550,100.425,251,38,25,26,75,-0.0894,0.0511,0.9872,3.4790,3.1128,-4.3945,1,0,0,0,0
29.550,100.428,252,38,25,25,75,-0.0793,0.0726,0.9640,0.3052,3.9673,3.7231,1,0,0,0,0
29.540,100.428,252,38,25,25,74,-0.0867,0.0455,0.9835,3.2349,0.7935,-0.7324,1,0,0,0,0
29.560,100.428,251,38,25,25,74,-0.0891,0.0292,0.9751,5.3101,4.7607,1.5259,0,0,1,0,0
29.550,100.352,252,38,25,25,74,-0.0295,0.0079,0.9467,11.7798,11.3525,3.3569,0,0,1,0,0
29.540,100.423,252,37,24,25,73,-0.0336,0.0001,0.9803,-5.1880,-4.9438,-9.5825,0,0,1,0,0
29.560,100.429,250,38,25,25,73,-0.0516,-0.0006,0.9951,0.6104,-2.3804,-0.7324,0,0,1,0,0
29.560,100.425,249,37,25,25,73,-0.0631,0.0088,0.9877,-2.1973,-1.2207,1.0986,0,0,1,0,0
29.550,100.427,252,37,25,25,73,-0.0385,0.0133,0.9425,-1.2207,-5.1270,-2.5024,0,0,1,0,0
29.560,100.425,249,38,25,25,73,-0.0959,0.0226,1.0128,-2.8687,-3.7842,0.0610,0,0,1,0,0
29.560,100.400,250,37,25,25,73,-0.0645,0.0260,0.9690,-1.7090,0.9155,-2.1362,0,0,1,0,0
29.560,100.405,250,38,25,25,73,-0.0907,0.0244,0.9957,-3.0518,-6.2256,3.9673,0,0,1,0,0
29.570,100.433,252,38,25,25,73,-0.0919,0.0320,0.9591,-4.5166,1.8921,2.1973,1,0,0,0,0
29.550,100.422,251,38,25,25,74,-0.0859,0.0400,0.9768,-7.1411,-7.9956,0.9155,1,0,0,0,0
29.560,100.429,251,38,25,25,74,-0.0999,0.0215,0.9706,0.9155,-0.3662,-4.4556,1,0,0,0,0
29.570,100.426,252,38,25,25,74,-0.1040,0.0344,0.9883,0.4272,0.1831,-0.5493,1,0,0,0,0
29.570,100.424,253,38,25,25,74,-0.0919,0.0497,0.9730,-2.8687,0.6104,-0.6714,1,0,0,0,0
29.570,100.294,251,38,25,25,74,-0.0919,0.0378,0.9722,-1.7700,1.2207,1.5259,1,0,0,0,0
29.550,100.429,251,38,25,25,74,-0.0911,0.0455,0.9740,-1.5259,1.5259,-2.6855,1,0,0,0,0
29.560,100.431,252,38,25,25,74,-0.0811,0.0452,0.9830,0.4883,-0.7324,2.9907,1,0,0,0,0
29.550,100.429,252,38,25,25,74,-0.0850,0.0385,0.9852,-4.1504,-1.4648,-1.5259,1,0,0,0,0
29.560,100.426,250,38,25,25,74,-0.0803,0.0428,0.9758,-4.4556,1.3428,0.7935,1,0,0,0,0
29.560,100.428,251,38,25,25,74,-0.0791,0.0413,0.9672,2.5024,1.2207,1.6479,0,0,1,0,0
29.560,100.426,251,38,25,25,74,-0.0903,0.0386,0.9860,-2.6855,-1.2207,-1.3428,1,0,0,0,0
29.560,100.407,250,38,25,25,74,-0.1241,0.0247,0.9995,-1.3428,4.2114,0.4883,1,0,0,0,0
29.550,100.426,252,38,25,26,75,-0.1903,0.0536,0.9564,0.7935,31.7993,12.5732,1,0,0,0,1
29.570,100.429,252,38,25,25,75,-0.0209,0.0448,0.9607,3.2959,18.3716,-1.1597,0,0,1,0,1
29.570,100.428,251,38,25,25,75,-0.0101,0.0060,1.0590,-10.4370,38.1470,-37.7808,0,0,1,0,1
29.580,100.423,251,38,24,24,73,0.2087,0.0383,1.0382,20.2026,53.1006,39.7339,0,1,0,0,1
29.590,100.433,250,34,21,22,67,0.5801,-0.0238,0.7729,17.8223,120.4834,3.1128,0,1,0,0,1
29.570,100.363,247,29,17,18,58,0.5405,-0.0115,0.6311,20.1416,6.2866,37.2925,0,1,0,0,1
29.550,100.428,248,30,18,19,60,0.4506,-0.0010,0.9277,-35.5225,-20.1416,-48.2178,0,1,0,0,1
29.550,100.424,249,31,18,19,61,0.4613,-0.0665,0.8407,11.6577,-2.4414,8.7891,0,1,0,0,1
29.540,100.424,249,31,18,19,60,0.4769,0.0115,0.8326,7.4463,8.9111,-3.9673,0,1,0,0,1
29.550,100.423,248,31,18,19,61,0.4457,-0.0293,0.9023,-11.8408,-25.1465,-5.1880,0,1,0,0,1
29.550,100.422,248,31,19,20,63,0.4352,-0.0220,0.8820,-0.1221,8.5449,0.0000,0,1,0,0,1
29.550,100.427,249,31,19,20,61,0.4600,-0.0269,0.8469,3.4790,6.5918,-0.3052,0,1,0,0,1
29.550,100.368,248,31,18,19,62,0.4368,-0.0272,0.8951,-4.8828,-4.3335,-2.3193,0,1,0,0,1
29.560,100.431,247,31,18,19,61,0.4633,-0.0509,0.8567,7.1411,11.2915,4.0283,0,1,0,0,1
29.550,100.426,246,30,18,19,61,0.4659,-0.0273,0.8535,-3.6621,-5.0049,-0.2441,0,1,0,0,1
29.570,100.426,249,31,18,19,61,0.4454,-0.0367,0.8735,-3.9062,2.2583,-1.4038,0,1,0,0,1
29.550,100.420,248,30,18,19,61,0.4774,-0.0398,0.8452,3.6621,2.3804,2.8687,0,1,0,0,1
29.550,100.425,247,30,18,19,60,0.4706,-0.0332,0.8611,3.1128,11.2915,-2.5024,0,1,0,0,1
29.550,100.360,246,30,17,19,58,0.5192,-0.0566,0.7888,4.3335,3.3569,-0.3662,0,1,0,0,1
29.560,100.428,246,30,17,19,59,0.4797,-0.0388,0.8733,-6.8970,-4.6997,-2.7466,0,1,0,0,1
29.550,100.421,248,30,18,19,59,0.4846,-0.0350,0.8461,2.3193,0.1831,5.6763,0,1,0,0,1
29.560,100.421,245,30,18,19,59,0.4817,-0.0470,0.8424,-9.3384,-5.8594,-4.3945,0,1,0,0,1
29.560,100.425,248,30,18,19,60,0.4713,-0.0577,0.8511,2.6855,-1.2817,1.7700,0,1,0,0,1
29.550,100.425,247,30,18,19,60,0.4869,-0.0227,0.8427,7.1411,-15.1367,6.2866,0,1,0,0,1
29.560,100.422,249,30,18,19,59,0.4673,-0.0435,0.8816,-5.2490,0.4883,-6.4087,0,1,0,0,1
29.570,100.332,248,30,18,19,60,0.4845,-0.0468,0.8207,4.2725,1.2207,6.4697,0,1,0,0,1
29.580,100.422,248,30,18,19,60,0.4778,-0.0405,0.8519,-2.2583,-0.8545,-2.9297,0,1,0,0,1
29.570,100.424,245,30,18,19,59,0.4912,-0.0446,0.8341,-1.0986,0.9155,0.3662,0,1,0,0,1
29.590,100.431,247,30,18,19,59,0.4846,-0.0521,0.8490,2.1362,-2.8076,0.4883,0,1,0,0,1
29.580,100.428,246,30,18,19,60,0.4845,-0.0298,0.8492,-2.4414,-0.1831,2.0142,0,1,0,0,1
29.570,100.423,249,30,18,19,60,0.4861,-0.0504,0.8545,-1.7700,-0.3052,-2.6855,0,1,0,0,1
29.580,100.346,248,30,18,19,60,0.4780,-0.0328,0.8572,-0.4883,-0.6104,-1.1597,0,1,0,0,1
29.590,100.427,246,30,18,19,59,0.4941,-0.0454,0.8431,-3.3569,-2.1973,0.0610,0,1,0,0,1
29.580,100.426,248,30,18,19,59,0.4790,-0.0443,0.8491,-3.2349,-4.5166,-1.2207,0,1,0,0,1
29.580,100.427,247,30,18,19,60,0.4811,-0.0553,0.8564,-2.1362,-0.3052,-2.9907,0,1,0,0,1
29.580,100.427,247,30,18,19,59,0.4841,-0.0488,0.8395,0.4883,0.0610,2.6855,0,1,0,0,1
29.590,100.425,247,30,18,19,59,0.4756,-0.0431,0.8556,-1.3428,-3.2959,-3.7231,0,1,0,0,1
29.570,100.422,249,30,18,19,59,0.4742,-0.0787,0.8495,-0.1221,-2.3804,-4.0283,0,1,0,0,1
29.580,100.341,246,30,18,19,60,0.4727,-0.0421,0.8529,0.2441,-1.2207,4.3335,0,1,0,0,1
29.580,100.422,247,30,18,19,61,0.4623,-0.0398,0.8619,1.0376,-5.2490,-1.4038,0,1,0,0,1
29.590,100.425,249,31,18,19,60,0.5420,-0.0428,0.8038,5.8594,-18.4326,-0.9766,0,1,0,0,1
29.590,100.426,250,32,19,20,65,0.3007,-0.0486,0.6772,65.1245,-53.3447,-0.6714,0,1,0,0,1
29.580,100.432,253,36,22,23,71,0.1285,-0.0342,1.1162,-71.5332,-139.6484,-54.6265,0,0,1,0,1
29.570,100.427,251,39,25,26,76,0.0625,0.0149,1.1187,-19.9585,-6.3477,18.3105,0,0,1,0,1
29.550,100.312,251,38,25,25,75,-0.0868,0.1525,0.8884,-14.2822,-51.8799,47.1191,1,0,0,0,1
29.560,100.432,250,37,24,24,71,-0.3882,0.0737,0.8977,-106.5063,-65.0024,-52.9175,1,0,0,0,1
29.560,100.428,251,37,25,25,72,-0.4161,0.0961,0.8999,51.7578,-4.5776,11.9019,1,0,0,0,1
29.550,100.422,252,35,24,23,68,-0.3002,0.1251,1.0626,15.9912,-8.7280,-1.7700,1,0,0,0,1
29.570,100.425,251,35,24,23,69,-0.3103,0.0061,0.9434,4.5776,10.2539,-10.7422,1,0,0,0,1
29.570,100.432,251,35,24,23,68,-0.2303,0.0052,0.9218,8.9722,12.5122,1.5869,1,0,0,0,1
29.570,100.430,249,35,24,23,68,-0.2502,0.0288,0.9835,-2.8076,-4.2725,1.8921,1,0,0,0,1
29.570,100.361,250,35,24,23,69,-0.2728,0.0225,0.9105,-14.5874,-6.7139,0.0000,1,0,0,0,1
29.570,100.428,251,35,24,23,68,-0.2815,0.0884,0.9772,-1.8311,-1.5869,7.3242,1,0,0,0,1
29.570,100.425,251,35,24,23,69,-0.2887,0.0288,0.9840,-8.9111,-16.7847,-9.4604,1,0,0,0,1
29.580,100.426,251,35,24,23,69,-0.2939,0.0275,0.9465,-0.1221,9.7046,5.5542,1,0,0,0,1
29.560,100.427,252,35,24,23,68,-0.2595,0.0505,0.9189,-2.6855,-2.3804,-0.6104,1,0,0,0,1
29.570,100.426,250,35,24,23,68,-0.2880,0.0389,0.9597,-0.4272,4.0894,-1.3428,1,0,0,0,1
29.570,100.362,251,35,24,23,69,-0.2653,0.0406,0.9434,-1.4648,3.7842,2.1973,1,0,0,0,1
29.580,100.426,253,35,24,23,68,-0.2529,0.0363,0.9467,-0.1221,0.0000,1.0376,1,0,0,0,1
29.540,100.424,251,35,24,23,69,-0.2627,0.0314,0.9570,-0.6714,1.5869,-1.6479,1,0,0,0,1
29.580,100.424,250,35,24,23,68,-0.2461,0.0366,0.9485,-0.5493,-1.1597,1.0986,1,0,0,0,1
29.570,100.426,251,35,24,23,68,-0.2635,0.0250,0.9504,-0.7324,0.1831,-0.3662,1,0,0,0,1
29.570,100.426,252,35,24,23,68,-0.2574,0.0333,0.9531,-1.4648,-0.0610,-0.4272,1,0,0,0,1
29.560,100.430,251,35,24,23,68,-0.2550,0.0337,0.9479,-0.4883,0.9766,0.9155,1,0,0,0,1
29.580,100.371,248,35,24,23,69,-0.2561,0.0300,0.9581,0.5493,0.0610,-0.6104,1,0,0,0,1
29.580,100.429,249,35,24,23,68,-0.2565,0.0364,0.9556,-5.6763,0.0610,-1.1597,1,0,0,0,1
29.580,100.429,251,36,24,23,69,-0.2489,0.0334,0.9427,4.1504,1.6479,2.1362,1,0,0,0,1
29.570,100.427,250,35,24,23,70,-0.2571,0.0262,0.9644,0.3052,3.9062,-0.4883,1,0,0,0,1
29.580,100.433,251,36,24,23,69,-0.2961,0.0425,0.9940,8.9722,8.7280,6.4087,1,0,0,0,1
29.580,100.433,252,36,24,23,69,-0.1050,0.0022,0.8936,117.7368,126.3428,56.8237,0,0,1,0,1
29.570,100.371,252,36,22,22,70,0.1266,-0.1897,0.8511,-20.5688,22.7661,-48.5229,0,0,1,0,1
29.570,100.423,251,36,22,22,70,0.0664,-0.3097,0.9542,8.0566,2.1362,-63.8428,0,0,1,0,1
29.580,100.428,250,36,22,22,70,0.1229,-0.3385,0.9236,39.3677,19.6533,-10.2539,0,0,1,0,1
29.570,100.426,248,35,22,22,71,0.1774,-0.4102,0.8685,13.3057,9.2773,-18.9819,0,0,1,0,1
29.560,100.430,251,35,22,22,71,0.1143,-0.4445,0.8824,-8.3008,-11.4746,-15.5640,0,0,1,0,1
29.570,100.430,253,36,22,22,71,0.0717,-0.3917,0.9420,-1.7700,-3.2349,1.3428,0,0,1,0,1
29.570,100.427,251,36,22,22,70,0.0886,-0.3723,0.8760,0.3662,1.6479,-1.4648,0,0,1,0,1
29.570,100.299,249,36,22,22,70,0.0558,-0.3813,0.9231,-4.5776,-2.0752,-4.5166,0,0,1,0,1
29.560,100.426,251,36,22,22,70,0.0692,-0.3842,0.8895,6.2256,1.0986,3.1738,0,0,1,0,1
29.580,100.424,250,36,22,22,70,0.0491,-0.3838,0.9316,-2.4414,-3.8452,-3.4180,0,0,1,0,1
29.580,100.431,252,36,22,22,70,0.0613,-0.3922,0.9117,2.2583,4.0283,1.1597,0,0,1,0,1
29.590,100.428,252,36,22,22,70,0.0623,-0.3835,0.9080,-4.3335,-2.8076,-2.1973,0,0,1,0,1
29.580,100.421,253,36,22,22,71,0.0630,-0.3942,0.9185,-0.1221,0.6104,-0.3052,0,0,1,0,1
29.570,100.322,249,36,22,22,70,0.0703,-0.3875,0.9091,-3.9673,-3.0518,-1.4038,0,0,1,0,1
29.580,100.421,250,36,22,22,70,0.0616,-0.3882,0.9064,-0.4883,0.9155,0.1221,0,0,1,0,1
29.610,100.428,252,36,22,22,70,0.0707,-0.3910,0.9041,-2.1973,-0.1831,-1.7700,0,0,1,0,1
29.590,100.428,249,36,22,22,70,0.0626,-0.3906,0.9099,-0.2441,1.0376,-1.2207,0,0,1,0,1
29.580,100.422,252,36,22,22,70,0.0616,-0.3887,0.9225,-3.1128,-0.5493,-0.0610,0,0,1,0,1
29.590,100.427,253,36,22,22,70,0.0723,-0.3868,0.8950,1.7090,0.1831,0.9155,0,0,1,0,1
29.580,100.428,251,36,22,22,70,0.0609,-0.3912,0.9113,-2.7466,0.0000,-2.5024,0,0,1,0,1
29.580,100.352,252,35,22,22,71,0.0717,-0.3877,0.9149,0.1221,1.2207,0.4272,0,0,1,0,1
29.580,100.424,252,36,22,22,70,0.0784,-0.3859,0.8909,-1.2207,-0.3052,-1.1597,0,0,1,0,1
29.580,100.425,252,36,22,22,70,0.0690,-0.3865,0.9276,-1.8921,-1.2207,-1.2817,0,0,1,0,1
29.590,100.423,251,35,22,22,70,0.0824,-0.3809,0.8862,-1.2817,-0.7935,-0.4883,0,0,1,0,1
29.580,100.428,250,35,22,22,70,0.0514,-0.3914,0.9208,0.6104,-2.1362,-2.7466,0,0,1,0,1
29.590,100.424,253,36,22,22,70,0.0896,-0.3943,0.9020,2.4414,8.4839,1.3428,0,0,1,0,1
29.580,100.342,250,35,22,22,70,0.0624,-0.3729,0.9230,-5.6763,-4.9438,-2.3193,0,0,1,0,1
29.600,100.427,252,35,22,22,71,0.0718,-0.3883,0.9030,-0.6104,-0.1831,0.4883,0,0,1,0,1
29.590,100.434,251,35,22,22,70,0.0699,-0.3798,0.8986,-2.4414,-0.3662,-2.1362,0,0,1,0,1
29.600,100.429,250,35,22,22,71,0.0696,-0.4115,0.9310,-9.7046,-3.6621,-0.3662,0,0,1,0,1
29.590,100.429,251,36,22,22,70,0.0454,-0.3733,0.8683,7.8735,-5.9204,16.5405,0,0,1,0,1
29.590,100.426,250,36,22,22,71,0.0430,-0.3370,0.9951,-14.8315,-27.0996,12.4512,0,0,1,0,1
29.590,100.424,252,36,22,22,70,0.0312,-0.3649,0.9128,-5.6763,8.5449,6.2866,0,0,1,0,1
29.580,100.365,251,36,22,22,70,0.0314,-0.3312,0.9108,-0.2441,-2.5635,4.0283,0,0,1,0,1
29.590,100.428,250,36,22,22,70,0.0359,-0.3407,0.9296,-5.4321,-1.6479,-0.9766,0,0,1,0,1
29.580,100.424,251,36,22,22,70,0.0294,-0.3474,0.9115,-1.9531,-1.6479,-0.9766,0,0,1,0,1
29.590,100.431,251,36,22,22,70,0.0229,-0.3401,0.9304,-1.5869,2.0752,-1.0376,0,0,1,0,1
29.590,100.430,253,36,22,22,71,0.0227,-0.3365,0.9294,-2.2583,-0.1221,0.2441,0,0,1,0,1
29.590,100.423,251,36,22,22,71,0.0205,-0.3418,0.9301,0.7935,-0.0610,0.4272,0,0,1,0,1
29.580,100.419,250,36,22,22,70,0.0277,-0.3357,0.9221,0.4883,0.5493,0.4272,0,0,1,0,1
29.600,100.343,253,36,22,22,70,0.0270,-0.3306,0.9292,-4.4556,-0.3052,-2.4414,0,0,1,0,1
29.590,100.422,249,36,22,22,71,0.0266,-0.3287,0.9368,0.2441,-2.6855,1.0376,0,0,1,0,1
29.600,100.423,252,36,22,22,70,0.0319,-0.3513,0.9281,-3.7842,0.0000,-2.8076,0,0,1,0,1
29.600,100.423,251,36,22,22,70,0.0270,-0.3223,0.9347,-5.0659,-1.2817,1.5259,0,0,1,0,1
29.600,100.417,251,36,22,22,71,0.0199,-0.3149,0.9462,-4.8218,-1.7700,-1.1597,0,0,1,0,1
29.590,100.425,251,36,22,22,70,0.0200,-0.3297,0.9305,-0.9766,-1.6479,0.0610,0,0,1,0,1
29.580,100.355,251,36,22,22,70,0.0281,-0.3289,0.9325,0.4883,1.0986,0.3662,0,0,1,0,1
29.590,100.422,249,36,22,22,70,0.0139,-0.3215,0.9371,0.0000,-2.0142,0.7324,0,0,1,0,1
29.580,100.425,251,36,22,22,71,0.0336,-0.3279,0.9265,-3.4790,0.6104,0.3662,0,0,1,0,1
29.580,100.425,249,36,22,22,70,0.0217,-0.3123,0.9404,-2.5024,-0.1221,-0.2441,0,0,1,0,1
29.580,100.429,252,36,22,22,70,0.0260,-0.3219,0.9310,-3.6621,-2.9297,-1.7700,0,0,1,0,1
29.580,100.424,252,36,22,22,71,0.0232,-0.3186,0.9326,-1.8921,-0.7935,0.5493,0,0,1,0,1
29.580,100.419,251,36,22,22,70,0.0107,-0.2947,0.9458,-11.6577,-4.1504,-2.2583,0,0,1,0,1
29.600,100.337,252,36,22,22,70,0.0088,-0.2938,0.9409,-4.5776,-1.0986,1.1597,0,0,1,0,1
29.590,100.422,252,36,22,22,70,0.0043,-0.3152,0.9730,-5.3101,-4.5776,-1.9531,0,0,1,0,1
29.590,100.421,252,36,22,22,70,0.0087,-0.4050,0.9304,-43.8843,13.5498,-15.6250,0,0,1,0,1
29.590,100.421,251,36,23,23,70,0.0762,-0.1547,0.9061,-137.8784,-35.7666,-15.1978,0,0,1,0,1
29.600,100.427,250,39,26,26,77,-0.0510,0.1285,0.8704,-68.1152,4.2725,36.8652,1,0,0,0,1
29.580,100.426,250,43,29,29,85,-0.1743,0.4221,0.8840,-53.2227,-1.7700,92.5293,0,0,0,1,1
29.580,100.292,250,47,41,43,95,-0.2727,0.4791,0.9968,-33.8745,6.7749,28.8696,0,0,0,1,1
29.560,100.422,251,55,53,56,124,-0.1541,0.4968,0.8354,-6.5308,54.1382,15.5029,0,0,0,1,1
29.570,100.429,249,53,48,54,118,-0.0476,0.4427,0.8097,-19.3481,-13.0005,11.1084,0,0,0,1,1
29.550,100.429,251,57,55,62,138,-0.0034,0.4313,0.8934,11.7187,15.3809,11.3525,0,0,0,1,1
29.550,100.422,252,54,50,57,128,-0.1167,0.5026,0.8536,3.3569,5.6763,16.9678,0,0,0,1,1
29.550,100.421,251,52,45,53,119,-0.0068,0.4175,0.8407,10.5591,5.7983,1.4648,0,0,0,1,1
29.550,100.427,250,51,44,51,114,-0.0544,0.3795,0.9427,-10.1318,-2.4414,-5.7373,0,0,0,1,1
29.550,100.363,250,50,43,50,113,0.0067,0.3912,0.8562,7.5684,11.1084,19.2871,0,0,0,1,1
29.560,100.430,250,51,43,50,114,-0.0776,0.4402,0.9297,-18.6768,5.0659,8.4229,0,0,0,1,1
29.560,100.430,249,52,43,51,117,-0.0093,0.4388,0.8208,6.5918,13.6108,2.2583,0,0,0,1,1
29.550,100.427,249,50,41,48,111,0.0165,0.4091,0.9172,-1.3428,-0.7935,-9.2163,0,0,0,1,1
29.550,100.419,251,49,39,46,106,0.0079,0.3920,0.8903,2.6245,6.1035,2.5024,0,0,0,1,1
29.560,100.424,251,48,36,42,100,0.0635,0.4131,0.8550,6.0425,-10.1318,4.0283,0,0,0,1,1
29.560,100.377,249,48,37,43,102,0.0361,0.3535,0.8862,-0.8545,10.3149,-7.6294,0,0,0,1,1
29.560,100.416,252,48,35,41,98,0.1071,0.3771,0.9261,-20.0806,-15.5029,-3.2349,0,0,0,1,1
29.570,100.422,251,50,39,46,107,0.0149,0.4244,0.8774,5.5542,-2.6245,26.1230,0,0,0,1,1
29.560,100.422,250,50,40,47,110,-0.0026,0.4333,0.8362,-2.0142,-6.8970,6.1035,0,0,0,1,1
29.560,100.420,251,51,41,48,112,-0.0277,0.4304,0.8982,3.8452,-1.3428,-4.0283,0,0,0,1,1
29.570,100.429,250,49,40,47,107,-0.0217,0.4371,0.8707,19.8975,-2.1362,-3.2959,0,0,0,1,1
29.570,100.428,250,48,37,43,101,-0.0337,0.4149,0.9338,1.2207,-10.8643,-17.5171,0,0,0,1,1
29.570,100.367,250,47,34,39,95,0.0007,0.3340,0.8947,21.6064,7.0801,-18.6768,0,0,0,1,1
29.580,100.422,251,45,30,32,91,0.0010,0.2826,0.9238,24.8413,-10.4370,-15.5029,0,0,0,1,1
29.570,100.426,252,44,29,30,88,-0.0137,0.2166,1.0239,-0.4883,-6.1035,-28.9917,0,0,0,1,1
29.570,100.422,252,43,29,29,86,0.0323,0.1647,0.9357,17.0288,16.3574,-7.1411,0,0,0,1,1
29.580,100.424,251,42,28,29,83,0.0746,0.1565,0.9484,-1.4648,-2.4414,-9.5825,0,1,0,0,1
29.580,100.423,251,42,28,28,83,0.0601,0.1985,0.9749,1.2817,-2.7466,5.7373,0,0,0,1,1
29.600,100.421,252,42,28,28,82,0.0472,0.2136,0.9512,-4.2114,0.3662,-2.7466,0,0,0,1,1
29.580,100.331,251,42,28,28,82,0.0662,0.1798,0.9591,2.0142,2.1973,-6.8970,0,1,0,0,1
29.580,100.423,252,41,27,28,82,0.0870,0.1766,0.9440,-5.2490,-4.6997,-2.1973,0,1,0,0,1
29.590,100.429,251,42,28,28,82,0.0363,0.1949,0.9785,-1.3428,-4.9438,-4.3335,0,0,0,1,1
29.590,100.428,251,42,28,28,82,0.0586,0.1787,0.9658,1.7090,0.6104,0.2441,0,1,0,0,1
29.600,100.425,249,41,27,28,82,0.0605,0.1771,0.9736,-2.7466,-0.9155,-1.9531,0,1,0,0,1
29.600,100.430,251,42,27,28,82,0.0626,0.1741,0.9609,0.8545,-1.1597,3.4180,0,1,0,0,1
29.570,100.303,251,41,27,28,82,0.0668,0.1846,0.9530,-0.9766,5.5542,-0.2441,0,1,0,0,1
29.600,100.427,251,41,27,28,82,0.0540,0.2063,0.9755,-2.6245,-4.2725,-0.5493,0,0,0,1,1
29.590,100.425,251,41,27,28,82,0.0554,0.1787,0.9814,-3.7231,1.8921,-2.0752,0,0,0,1,1
29.580,100.420,251,41,27,28,82,0.0729,0.1769,0.9547,-0.2441,-1.3428,1.2207,0,1,0,0,1
29.590,100.430,250,41,27,28,82,0.0649,0.1954,0.9591,2.6245,1.8311,2.4414,0,0,0,1,1
29.590,100.428,252,41,27,28,82,0.0745,0.1652,0.9600,-5.9814,-1.4648,-2.9297,0,1,0,0,1
29.590,100.425,252,41,27,28,82,0.0566,0.1952,0.9791,4.1504,0.4272,7.6294,0,0,0,1,1
29.590,100.361,252,41,27,28,82,0.0675,0.1683,0.9421,-1.4038,-3.3569,4.4556,0,1,0,0,1
29.600,100.426,252,41,27,28,82,0.0593,0.2014,0.9719,1.5259,0.9155,3.2349,0,0,0,1,1
29.600,100.428,251,41,27,28,81,0.0625,0.1625,0.9628,-3.0518,-4.8218,-5.4321,0,1,0,0,1
29.600,100.425,252,41,27,28,81,0.0850,0.1354,0.9618,2.3193,0.2441,1.1597,0,1,0,0,1
29.600,100.428,251,41,27,28,81,0.0704,0.1766,0.9429,2.3193,5.9204,4.3945,0,1,0,0,1
29.600,100.423,251,41,27,28,81,0.0613,0.1654,0.9735,-2.9907,-2.8076,-8.9722,0,1,0,0,1
29.620,100.347,249,41,27,28,81,0.0636,0.1504,0.9648,3.4790,-2.2583,6.8970,0,1,0,0,1
29.600,100.421,252,41,27,27,80,0.0612,0.1686,0.9541,-2.3804,-2.1362,-2.3804,0,1,0,0,1
29.600,100.429,251,41,27,27,80,0.0692,0.1398,0.9618,0.2441,-0.6714,-2.5024,0,1,0,0,1
29.600,100.429,250,41,27,28,80,0.0634,0.1498,0.9734,-2.8076,-1.0986,0.0000,0,1,0,0,1
29.620,100.431,251,41,27,27,80,0.0636,0.1583,0.9613,-1.4038,-2.2583,1.1597,0,1,0,0,1
29.630,100.437,248,41,27,27,80,0.0675,0.1541,0.9603,0.6714,-0.2441,-2.1973,0,1,0,0,1
29.610,100.426,249,41,27,27,80,0.0739,0.1390,0.9581,-2.9297,2.7466,-2.5024,0,1,0,0,1
29.620,100.362,250,41,27,27,80,0.0533,0.1653,0.9772,1.5869,-0.3052,0.0000,0,1,0,0,1
29.620,100.430,250,41,27,27,80,0.0830,0.1332,0.9470,-1.5259,0.1221,0.6714,0,1,0,0,1
29.620,100.429,249,41,27,27,80,0.0546,0.1603,0.9701,1.3428,2.8687,3.6621,0,1,0,0,1
29.620,100.430,253,41,27,27,80,0.0746,0.1455,0.9657,-3.3569,-2.0142,-7.7515,0,1,0,0,1
29.610,100.421,253,41,27,27,80,0.0780,0.1287,0.9738,-1.0986,1.8921,3.2349,0,1,0,0,1
29.610,100.425,251,40,27,27,80,0.0793,0.1654,0.9417,3.7842,0.9766,0.2441,0,1,0,0,1
29.620,100.385,249,40,27,27,80,0.0582,0.1311,1.0005,-5.0659,-5.3101,-2.1973,0,1,0,0,1
29.600,100.403,252,40,27,27,80,0.0839,0.1344,0.9436,1.1597,3.0518,5.4321,0,1,0,0,1
29.610,100.432,252,40,26,27,80,0.0415,0.1576,0.9702,0.4883,-2.6245,2.0142,0,1,0,0,1
29.610,100.425,251,40,26,27,79,0.0182,0.1263,1.0193,26.4893,-5.0659,5.8594,0,1,0,0,1
29.610,100.426,252,39,25,26,76,0.0635,0.0386,0.9393,36.4990,4.2114,12.4512,0,0,1,0,1
29.610,100.431,252,38,24,25,74,0.1158,0.0621,1.0165,36.1938,-11.6577,31.4331,0,1,0,0,1
29.610,100.424,250,37,23,23,71,0.1106,-0.0889,0.8519,85.3882,10.7422,2.5024,0,0,1,0,1
29.630,100.352,251,36,22,22,69,-0.0348,-0.2566,0.9760,37.2925,-24.6582,-25.4517,0,0,1,0,1
29.610,100.429,251,36,22,22,70,0.0074,-0.3032,0.9681,34.7290,6.1646,-7.8735,0,0,1,0,1
29.620,100.431,250,36,22,22,70,0.0669,-0.3832,0.8904,15.3809,4.0894,-35.4004,0,0,1,0,1
29.600,100.426,253,36,22,22,69,-0.0630,-0.4907,0.8900,-1.7700,9.3994,-53.4058,0,0,1,0,1
29.600,100.423,251,35,22,22,69,0.0116,-0.4254,0.9296,4.8218,-7.5073,14.4043,0,0,1,0,1
29.600,100.424,250,35,22,22,69,0.0105,-0.3998,0.8949,-4.5166,7.2632,-3.7842,0,0,1,0,1
29.600,100.422,250,35,22,22,69,0.0111,-0.3918,0.9131,-2.7466,2.6855,-5.7983,0,0,1,0,1
29.610,100.361,251,35,22,22,69,0.0275,-0.4207,0.8851,0.7324,2.2583,-2.4414,0,0,1,0,1
29.610,100.429,250,35,22,22,69,0.0063,-0.3933,0.9307,-2.3193,-0.9155,3.6621,0,0,1,0,1
29.610,100.431,251,35,22,22,69,0.0305,-0.3931,0.8990,-2.1362,7.5073,1.8311,0,0,1,0,1
29.620,100.426,251,36,22,22,69,0.0343,-0.3915,0.9158,-3.1128,0.3662,2.1362,0,0,1,0,1
29.610,100.428,251,36,22,22,70,0.0349,-0.3663,0.9208,-3.1738,-0.6714,0.3662,0,0,1,0,1
29.620,100.429,252,36,22,22,70,0.0599,-0.3893,0.9209,-4.3945,0.0610,-0.3052,0,0,1,0,1
29.620,100.294,251,35,22,22,69,0.0519,-0.3970,0.9077,0.0000,1.2817,7.9346,0,0,1,0,1
29.630,100.430,250,36,22,22,70,0.0574,-0.3749,0.9128,-3.5400,-0.4883,-0.1221,0,0,1,0,1
29.620,100.426,251,36,22,22,70,0.0548,-0.3762,0.8987,-2.4414,2.5635,1.8921,0,0,1,0,1
29.630,100.428,251,36,22,22,71,0.0587,-0.3744,0.9176,-3.3569,1.4648,-1.3428,0,0,1,0,1
29.620,100.425,251,36,22,22,70,0.0551,-0.3632,0.9042,0.3052,0.8545,1.5259,0,0,1,0,1
29.610,100.427,252,36,22,22,70,0.0647,-0.3582,0.9237,3.7842,4.6997,1.5259,0,0,1,0,1
29.620,100.428,250,36,22,22,70,0.0769,-0.4270,0.9088,-14.0381,0.0610,-7.7515,0,0,1,0,1
29.610,100.408,250,36,22,22,70,0.0917,-0.3643,0.9087,0.0610,-0.7324,15.5029,0,0,1,0,1
29.630,100.431,251,36,22,22,70,0.1598,-0.4144,0.9037,-25.4517,-9.8267,-5.3101,0,0,1,0,1
29.620,100.429,251,36,22,22,70,0.0240,-0.3065,0.8593,-65.1855,-46.8750,-2.1973,0,0,1,0,1
29.620,100.421,250,36,23,23,69,-0.2144,-0.0033,0.9929,-86.1206,-54.0771,-2.9907,1,0,0,0,1
29.610,100.428,251,37,24,24,71,-0.1713,0.1614,0.8785,-21.0571,-26.1230,30.7617,1,0,0,0,1
29.610,100.418,250,37,25,24,71,-0.3585,0.2015,1.0319,-55.1147,-40.5273,-26.1841,1,0,0,0,1
29.610,100.357,251,38,26,25,73,-0.3224,0.1603,0.9590,1.8311,30.0293,6.4087,1,0,0,0,1
29.620,100.433,252,38,26,26,74,-0.2345,0.1494,0.9006,17.2119,12.6953,37.5977,1,0,0,0,1
29.590,100.425,251,37,26,25,73,-0.2545,0.1340,0.9733,-14.8926,-10.0708,-6.2866,1,0,0,0,1
29.600,100.424,252,38,26,25,73,-0.2388,0.0795,0.9231,0.6714,-2.0142,-2.1973,1,0,0,0,1
29.600,100.427,252,37,26,25,73,-0.2841,0.1252,0.9806,3.1128,-0.8545,1.8311,1,0,0,0,0
29.590,100.431,251,37,26,25,73,-0.2212,0.0829,0.9425,5.4932,19.1650,-7.6904,1,0,0,0,0
29.590,100.385,251,38,26,25,74,-0.2036,0.1005,0.9604,3.7842,0.6714,9.3384,1,0,0,0,0
29.610,100.411,252,38,26,25,74,-0.2019,0.1077,0.9539,-0.6714,7.3242,-0.5493,1,0,0,0,0
29.610,100.428,248,38,26,25,74,-0.1802,0.0865,0.9775,-1.9531,10.9253,-4.4556,1,0,0,0,0
29.610,100.426,248,38,26,25,74,-0.1704,0.1069,0.9731,1.5259,-0.8545,8.3618,1,0,0,0,0
29.600,100.426,251,38,26,25,74,-0.1720,0.0823,0.9683,-4.8828,0.4883,-5.6763,1,0,0,0,0
29.610,100.432,250,38,26,25,74,-0.1462,0.0782,0.9454,0.5493,2.0752,1.2207,1,0,0,0,0
29.610,100.421,251,38,26,25,74,-0.1586,0.0820,0.9636,1.4038,-0.3052,-1.4648,1,0,0,0,0
29.610,100.355,249,38,26,25,74,-0.1637,0.0869,0.9753,1.3428,3.4790,0.0610,1,0,0,0,0
29.610,100.421,252,38,25,25,74,-0.1531,0.0815,0.9670,-3.6621,-3.1738,-2.3804,1,0,0,0,0
29.610,100.426,250,38,25,25,74,-0.1598,0.0634,0.9680,-5.3101,-8.5449,-3.1738,1,0,0,0,0
29.610,100.422,250,38,25,25,74,-0.1774,0.0782,0.9840,0.0610,1.5869,2.3193,1,0,0,0,0
29.620,100.424,252,38,25,25,74,-0.1553,0.0663,0.9697,6.4087,6.8359,2.1362,1,0,0,0,0
29.620,100.426,251,38,25,25,73,-0.1289,0.0698,0.9413,-5.9814,-4.3335,-1.8921,1,0,0,0,0
29.610,100.422,251,38,25,25,74,-0.1479,0.0626,0.9764,0.4272,3.4790,-2.1362,1,0,0,0,0
29.610,100.321,252,38,25,25,74,-0.1617,0.0826,0.9783,-1.2207,-4.1504,5.0659,1,0,0,0,0
29.620,100.426,250,38,25,25,74,-0.1520,0.0673,0.9600,-7.3853,1.1597,-4.3945,1,0,0,0,0
29.610,100.428,251,38,25,25,74,-0.1450,0.0710,0.9628,-0.8545,0.3052,3.4790,1,0,0,0,0
29.630,100.423,250,38,25,25,74,-0.1584,0.0745,0.9871,-0.7324,-2.4414,0.1831,1,0,0,0,0
29.620,100.424,251,38,25,25,74,-0.1414,0.0657,0.9502,1.2817,5.3711,0.7324,1,0,0,0,0
29.620,100.425,252,38,25,25,74,-0.1400,0.0673,0.9894,-5.0659,1.5869,-1.7090,1,0,0,0,0
29.630,100.322,251,38,25,25,74,-0.1642,0.0699,0.9954,-8.3618,-7.9956,0.9155,1,0,0,0,0
29.630,100.424,250,38,26,26,75,-0.4147,0.1040,1.1030,-11.1694,-8.5449,-7.4463,1,0,0,0,0
29.620,100.425,251,39,26,27,77,-0.1656,0.1049,0.9240,56.5186,113.0981,-2.1973,1,0,0,0,0
29.620,100.428,252,38,25,25,75,0.1425,0.0057,0.9554,-37.2925,-0.1221,21.5454,0,1,0,0,0
29.650,100.425,251,39,25,25,76,0.3325,0.0870,0.9587,11.5967,91.6138,17.7612,0,1,0,0,0
29.620,100.431,250,35,22,23,71,0.4636,0.1199,0.7025,15.6860,77.1484,30.4565,0,1,0,0,0
29.620,100.424,250,32,19,20,64,0.4330,0.1896,0.8104,-17.4561,5.3101,21.5454,0,1,0,0,0
29.610,100.354,247,33,20,21,64,0.4349,0.1176,0.8766,-27.4048,6.8970,-51.1475,0,1,0,0,0
29.620,100.429,246,33,20,21,64,0.4293,0.0355,0.8851,-2.6855,5.2490,-23.6816,0,1,0,0,0
29.610,100.425,248,32,20,21,63,0.4781,0.0485,0.8728,13.3057,20.6909,0.6714,0,1,0,0,0
29.620,100.424,248,30,19,20,60,0.4879,0.0436,0.8403,-10.0098,-7.8735,-2.9297,0,1,0,0,0
29.620,100.419,246,31,19,20,62,0.4750,0.0454,0.8704,-1.7700,4.2725,-2.3193,0,1,0,0,0
29.630,100.426,247,30,19,20,61,0.4821,0.0453,0.8691,0.4272,-0.8545,1.8921,0,1,0,0,0
29.620,100.333,249,30,18,20,60,0.4927,0.0321,0.8225,-6.4087,0.1221,-0.5493,0,1,0,0,0
29.610,100.421,246,30,19,20,61,0.4822,0.0570,0.8527,0.3662,3.7231,2.0752,0,1,0,0,0
29.620,100.428,248,30,18,19,60,0.4877,0.0510,0.8470,-3.8452,-4.0283,-0.4272,0,1,0,0,0
29.620,100.431,247,30,18,20,61,0.4933,0.0320,0.8337,-4.7607,0.5493,-3.1738,0,1,0,0,0
29.610,100.424,247,30,19,20,60,0.5020,0.0481,0.8400,3.1128,1.7700,2.8076,0,1,0,0,0
29.620,100.422,245,31,19,20,60,0.4856,0.0699,0.8495,-7.0801,-6.6528,1.7700,0,1,0,0,0
29.620,100.419,247,31,19,20,61,0.4711,0.0654,0.8759,-3.1128,-3.8452,-1.2817,0,1,0,0,0
29.620,100.364,247,31,19,20,62,0.4628,0.0508,0.8468,-5.0659,-5.9814,0.4883,0,1,0,0,0
29.620,100.422,246,31,19,20,62,0.4741,0.0311,0.8551,-2.8687,0.8545,-2.8076,0,1,0,0,0
29.620,100.428,249,31,19,20,62,0.4613,0.0640,0.8452,0.9766,2.9907,2.1973,0,1,0,0,0
29.620,100.427,248,31,19,20,62,0.4708,0.0590,0.8519,-3.3569,-1.0986,-0.7935,0,1,0,0,0
29.640,100.421,249,31,19,20,62,0.4729,0.0662,0.8545,-1.8311,-2.2583,1.0986,0,1,0,0,0
29.640,100.436,247,31,19,20,63,0.4724,0.0559,0.8596,-1.0376,0.0000,-0.6104,0,1,0,0,0
29.620,100.407,247,31,19,20,63,0.4736,0.0560,0.8385,0.6104,2.2583,1.0986,0,1,0,0,0
29.640,100.383,249,31,19,20,62,0.4552,0.0770,0.8698,-3.7842,-4.9438,0.6714,0,1,0,0,0
29.650,100.432,246,31,19,20,62,0.4705,0.0476,0.8599,-3.2959,-4.7607,-3.1738,0,1,0,0,0
29.640,100.431,248,32,19,20,62,0.4438,0.0637,0.8611,5.7373,-4.7607,3.9062,0,1,0,0,0
29.640,100.420,247,32,19,20,62,0.4432,0.0367,0.8737,-2.9907,0.4883,-12.3291,0,1,0,0,0
29.650,100.426,247,32,19,20,62,0.4692,0.0081,0.8677,-6.0425,-2.6855,-2.6855,0,1,0,0,0
29.640,100.428,249,32,19,20,63,0.4535,0.0474,0.8730,8.3008,3.2349,6.7749,0,1,0,0,0
29.660,100.357,249,31,19,20,62,0.4592,0.0330,0.8435,-6.0425,-1.1597,-7.3242,0,1,0,0,0
29.620,100.423,249,31,19,20,63,0.4464,0.0226,0.8734,-4.3945,-10.9863,-2.1973,0,1,0,0,0
29.660,100.426,247,32,20,21,63,0.4504,0.0072,0.8710,-4.0283,2.6245,-2.3193,0,1,0,0,0
29.640,100.426,247,32,20,21,64,0.4379,0.0372,0.8955,-0.1831,-2.7466,13.9160,0,1,0,0,0
29.640,100.427,247,32,20,21,65,0.4017,0.0774,0.8649,-4.5776,-5.2490,12.2681,0,1,0,0,0
29.640,100.427,247,33,20,21,64,0.4176,0.0532,0.8938,-7.5073,-4.0283,-8.6670,0,1,0,0,0
29.630,100.416,247,33,20,21,65,0.4073,0.0492,0.8953,0.2441,0.6104,4.8828,0,1,0,0,0
29.630,100.349,249,33,20,21,65,0.4163,0.0708,0.8706,1.5869,1.4648,1.8921,0,1,0,0,0
29.640,100.425,249,33,20,21,64,0.4290,0.0443,0.8688,-1.7090,-0.4883,-2.4414,0,1,0,0,0
29.650,100.427,247,33,20,21,66,0.4099,0.0663,0.8904,0.5493,1.2207,1.6479,0,1,0,0,0
29.650,100.427,250,33,20,21,64,0.4224,0.0488,0.8762,-3.7231,-3.0518,-2.1362,0,1,0,0,0
29.650,100.431,248,33,20,21,65,0.4188,0.0538,0.8806,-0.9155,1.2817,0.7324,0,1,0,0,0
29.650,100.424,250,33,20,21,65,0.4158,0.0575,0.8821,-0.7935,-1.8921,-0.4883,0,1,0,0,0
29.640,100.287,249,33,20,21,65,0.4070,0.0496,0.8899,-0.6104,-2.9907,0.1221,0,1,0,0,0
29.640,100.423,246,33,20,21,65,0.4075,0.0504,0.8843,2.6855,3.4180,0.4883,0,1,0,0,0
29.650,100.430,247,33,20,21,65,0.4185,0.0580,0.8717,-1.9531,2.6245,-0.2441,0,1,0,0,0
29.640,100.417,249,33,20,21,64,0.4110,0.0669,0.9025,-1.9531,-2.3193,0.5493,0,1,0,0,0
29.640,100.424,249,33,20,21,64,0.4270,0.0356,0.8630,-3.2349,-0.3052,-1.7700,0,1,0,0,0
29.650,100.429,247,33,20,21,65,0.4164,0.0684,0.8895,1.2207,1.5869,4.1504,0,1,0,0,0
29.640,100.419,248,32,20,21,64,0.4159,0.0612,0.8876,-4.8218,-2.5635,-2.3804,0,1,0,0,0
29.650,100.363,250,33,20,21,64,0.4159,0.0494,0.8823,-2.4414,-4.3945,1.2817,0,1,0,0,1
29.650,100.432,249,33,20,21,65,0.4167,0.0530,0.8812,0.5493,1.9531,0.4272,0,1,0,0,1
29.630,100.424,248,33,20,21,64,0.4424,0.0511,0.8632,2.0142,-4.6387,0.9155,0,1,0,0,1
29.650,100.420,249,33,20,21,66,0.4757,0.0232,0.7954,5.5542,-12.5732,-2.0752,0,1,0,0,1
29.660,100.426,249,35,22,23,68,0.3556,0.0245,0.7885,-24.5361,-99.8535,-6.4087,0,1,0,0,1
29.640,100.427,251,40,26,27,79,0.0214,0.1980,1.0901,-36.9263,-72.2656,-17.5781,0,0,0,1,1
29.650,100.361,251,42,28,28,83,0.0262,0.1898,0.8619,43.9453,16.2354,31.8604,0,0,0,1,1
29.640,100.430,251,40,26,27,79,-0.0092,0.1940,0.9384,17.5781,-51.3916,-12.8784,0,0,0,1,1
29.630,100.426,251,40,27,27,79,-0.3000,0.1356,1.0713,-49.1333,-62.6221,-58.3496,1,0,0,0,1
29.620,100.429,251,41,28,27,80,-0.1959,0.1658,1.0614,18.6768,20.1416,13.1226,1,0,0,0,1
29.620,100.429,250,40,27,27,78,-0.1339,0.1816,0.9132,4.8218,23.2544,13.1226,1,0,0,0,1
29.610,100.429,251,40,27,27,79,-0.1171,0.1755,0.9744,-10.2539,-0.5493,-3.3569,1,0,0,0,1
29.600,100.422,250,40,27,27,79,-0.0885,0.1462,0.9734,0.4883,12.6953,1.1597,1,0,0,0,1
29.620,100.365,250,40,27,27,80,-0.0437,0.1681,0.8893,7.0190,12.5122,6.1646,1,0,0,0,1
29.610,100.421,252,40,27,27,80,-0.0627,0.1702,0.9602,-5.4932,-10.1318,-3.6011,1,0,0,0,1
29.630,100.425,251,40,27,27,80,-0.1060,0.1655,0.9803,-4.2725,-0.6104,1.1597,1,0,0,0,1
29.620,100.422,252,40,27,28,80,-0.1014,0.1750,0.9666,6.8359,3.3569,7.4463,1,0,0,0,1
29.650,100.421,251,40,27,27,79,-0.0786,0.1526,0.9586,-4.2114,0.1221,-4.5166,1,0,0,0,1
29.650,100.432,250,40,27,27,80,-0.0807,0.1525,0.9735,-1.4038,4.0283,3.0518,1,0,0,0,1
29.640,100.361,252,40,27,27,79,-0.0797,0.1487,0.9583,-2.5635,-1.2207,-1.2817,1,0,0,0,1
29.640,100.419,251,40,27,27,80,-0.0745,0.1530,0.9612,-6.1035,4.3335,-5.2490,1,0,0,0,1
29.660,100.425,251,41,27,28,80,-0.0731,0.1681,0.9679,0.9155,-0.1831,3.6621,1,0,0,0,1
29.660,100.430,250,41,27,28,80,-0.0798,0.1736,0.9653,-4.4556,-0.7935,-3.0518,1,0,0,0,1
29.660,100.417,250,41,27,28,80,-0.0660,0.1571,0.9656,0.3052,-1.3428,3.2349,1,0,0,0,1
29.650,100.425,252,41,27,28,80,-0.0770,0.1758,0.9563,-2.2583,0.7935,-0.6714,1,0,0,0,1
29.670,100.422,252,41,27,28,80,-0.0592,0.1614,0.9612,-3.9062,2.4414,-7.2632,1,0,0,0,1
29.660,100.294,251,41,28,28,81,-0.0709,0.1710,0.9758,-0.3052,-1.4648,3.2959,1,0,0,0,1
29.660,100.428,251,41,27,28,80,-0.0688,0.1735,0.9589,-5.1880,-0.4272,-1.2207,1,0,0,0,1
29.650,100.426,251,41,27,28,81,-0.0723,0.1787,0.9740,-2.0752,-1.4038,1.8921,1,0,0,0,1
29.660,100.424,250,41,27,28,81,-0.0592,0.1796,0.9474,-2.5635,0.3662,-2.3193,1,0,0,0,1
29.670,100.428,251,41,28,28,81,-0.0664,0.1748,0.9716,-1.4648,-0.6104,-1.5869,1,0,0,0,1
29.650,100.429,253,41,27,28,81,-0.0664,0.1837,0.9617,1.4038,1.4648,3.0518,1,0,0,0,1
29.660,100.414,250,41,27,28,81,-0.0717,0.1764,0.9692,-5.1270,-3.6011,-3.1738,1,0,0,0,1
29.670,100.381,251,41,28,28,81,-0.0630,0.1709,0.9572,-0.0610,-0.4272,1.0376,1,0,0,0,1
29.670,100.427,252,41,28,28,81,-0.0637,0.1808,0.9677,-2.6245,1.6479,-1.5869,1,0,0,0,1
29.660,100.422,251,41,28,28,81,-0.0688,0.1819,0.9569,1.2207,1.5869,1.9531,1,0,0,0,1
29.660,100.430,252,41,28,28,81,-0.0730,0.1936,0.9698,-0.9766,-3.6621,0.4272,1,0,0,0,1
29.660,100.425,251,41,28,28,81,-0.0706,0.1718,0.9667,-5.0659,-1.0376,-1.4648,1,0,0,0,1
29.660,100.429,252,41,28,28,81,-0.0569,0.1854,0.9431,1.9531,2.6245,2.3804,1,0,0,0,1
29.650,100.357,252,41,28,28,81,-0.0710,0.1802,0.9683,-3.2959,-3.0518,-2.5024,1,0,0,0,1
29.670,100.426,252,41,28,28,81,-0.0687,0.1830,0.9611,-1.4648,1.1597,0.5493,1,0,0,0,1
29.660,100.430,250,41,28,28,81,-0.0696,0.1765,0.9675,-1.7090,-2.9297,-0.3662,1,0,0,0,1
29.650,100.423,251,41,28,28,81,-0.0702,0.1860,0.9584,-1.9531,1.2207,0.1831,1,0,0,0,1
29.650,100.421,252,41,28,28,81,-0.0649,0.1771,0.9648,-4.3335,-0.3052,-2.0142,1,0,0,0,1
29.650,100.427,251,41,28,28,81,-0.0693,0.1781,0.9562,0.7935,2.2583,2.4414,1,0,0,0,1
29.650,100.424,251,41,28,28,81,-0.0671,0.1862,0.9576,-1.8921,-0.3052,-1.0986,1,0,0,0,1
29.650,100.367,252,41,28,28,81,-0.0543,0.1754,0.9609,-2.3193,-1.0986,-1.2207,1,0,0,0,1
29.650,100.428,251,41,28,28,81,-0.0708,0.1912,0.9688,0.7935,0.4883,2.3193,1,0,0,0,1
29.650,100.426,251,41,28,28,81,-0.0619,0.1758,0.9691,-7.4463,-4.4556,-2.2583,1,0,0,0,1
29.670,100.429,253,41,28,28,81,-0.0642,0.1879,0.9530,0.8545,0.7324,2.4414,1,0,0,0,1
29.660,100.425,250,41,28,28,81,-0.0674,0.1740,0.9650,-3.1738,-1.7700,-1.2817,1,0,0,0,1
29.670,100.430,251,41,28,28,81,-0.0566,0.1818,0.9547,-3.4790,1.7700,-0.5493,1,0,0,0,1
29.660,100.362,249,41,28,28,81,-0.0686,0.1879,0.9750,-3.9062,-2.2583,0.1221,1,0,0,0,1
29.660,100.422,249,41,28,28,81,-0.0610,0.1791,0.9587,-0.6714,-2.8687,-0.1831,1,0,0,0,1
29.660,100.422,252,41,28,28,81,-0.0846,0.1743,0.9817,-5.3711,-4.5776,-1.7090,1,0,0,0,1
29.670,100.426,252,41,28,28,82,-0.0616,0.1952,0.9280,5.9814,9.2163,7.0801,1,0,0,0,1
29.670,100.426,251,41,28,28,81,-0.0665,0.2004,0.9562,-3.0518,-5.0659,-5.4321,1,0,0,0,1
29.660,100.430,250,41,28,28,82,-0.0957,0.1881,0.9945,-6.7139,-1.1597,-4.2114,1,0,0,0,1
29.670,100.423,251,42,28,29,83,-0.0743,0.2684,1.0632,-20.0195,6.8359,-39.7339,0,0,0,1,1
29.670,100.331,253,44,30,30,87,0.0221,0.1438,0.8489,-66.6504,-7.8125,-36.4380,0,0,0,1,1
29.670,100.421,251,49,45,43,98,-0.0544,0.3268,0.9408,-8.9722,16.4795,55.1147,0,0,0,1,1
29.660,100.425,251,52,49,51,112,-0.0657,0.4744,0.8444,2.0752,71.5942,75.0122,0,0,0,1,1
29.650,100.433,250,50,42,49,108,0.0132,0.4423,0.7349,-13.1836,0.0610,74.2798,0,0,0,1,1
29.630,100.428,250,55,48,57,130,-0.0651,0.5450,0.7788,-29.9683,-23.6816,-5.9204,0,0,0,1,1
29.640,100.422,252,68,71,84,177,-0.1731,0.5648,0.8401,-36.6821,-56.6406,-2.1362,0,0,0,1,1
29.640,100.339,251,89,97,109,238,-0.1959,0.5811,0.8043,10.5591,21.1182,5.6152,0,0,0,1,1
29.630,100.430,252,79,85,100,207,-0.1492,0.5511,0.7769,2.4414,-0.5493,-1.4648,0,0,0,1,1
29.640,100.426,251,79,85,100,206,-0.1447,0.5168,0.8114,-1.6479,-5.3711,-0.4272,0,0,0,1,1
29.650,100.427,250,78,84,99,204,-0.1727,0.5172,0.8428,-6.2256,-0.8545,3.3569,0,0,0,1,1
29.640,100.420,251,76,81,96,199,-0.1161,0.5167,0.7607,3.4790,21.3013,2.9297,0,0,0,1,1
29.630,100.425,252,72,76,91,188,-0.1494,0.5294,0.8198,-9.6436,-9.2163,-4.6387,0,0,0,1,1
29.640,100.425,251,75,80,96,197,-0.1456,0.5192,0.8071,2.7466,5.2490,2.3193,0,0,0,1,1
29.660,100.358,251,73,78,93,193,-0.1564,0.5310,0.8086,-1.7090,-2.1362,0.9766,0,0,0,1,1
29.650,100.431,252,73,78,94,193,-0.1588,0.5192,0.8203,-0.5493,2.3193,-1.4038,0,0,0,1,1
29.630,100.423,250,71,75,91,187,-0.1195,0.5212,0.8162,2.3804,17.7002,3.2349,0,0,0,1,1
29.650,100.417,252,66,67,81,171,-0.0720,0.5011,0.7798,2.7466,7.8125,2.1362,0,0,0,1,0
29.640,100.421,251,66,67,81,171,-0.1163,0.5092,0.8507,-5.1270,-5.1270,-2.4414,0,0,0,1,0
29.650,100.421,251,67,68,83,175,-0.0991,0.5140,0.8345,3.1738,9.3994,6.1646,0,0,0,1,0
29.650,100.308,252,63,64,77,165,-0.0740,0.5009,0.8010,-3.1128,-0.7324,0.4883,0,0,0,1,0
29.660,100.434,253,65,65,79,169,-0.0988,0.5149,0.8442,-5.4932,-0.1831,0.4883,0,0,0,1,0
29.660,100.430,250,64,65,78,167,-0.0667,0.4984,0.7987,1.0376,2.5024,0.1221,0,0,0,1,0
29.640,100.423,251,64,65,79,169,-0.0873,0.5088,0.8422,-2.9907,-0.7324,-0.2441,0,0,0,1,0
29.660,100.425,250,64,65,78,168,-0.0757,0.5118,0.8154,3.1128,5.0049,3.8452,0,0,0,1,0
29.680,100.428,250,63,63,76,164,-0.0891,0.5111,0.8439,-7.0801,-9.8877,-0.5493,0,0,0,1,0
29.660,100.423,251,64,64,79,168,-0.0807,0.5007,0.8202,1.2207,5.2490,1.5259,0,0,0,1,0
29.670,100.363,251,64,63,78,167,-0.0874,0.5135,0.8300,-0.6104,-0.1831,0.1831,0,0,0,1,0
29.670,100.426,250,64,63,78,167,-0.0830,0.5026,0.8339,-0.0610,-1.0376,-0.1831,0,0,0,1,0
29.660,100.426,251,64,63,78,166,-0.0862,0.5050,0.8335,1.2817,0.7935,0.7935,0,0,0,1,0
29.660,100.423,251,63,63,76,164,-0.0811,0.5076,0.8275,-2.8687,-0.1221,-0.4883,0,0,0,1,0
29.670,100.427,252,64,63,76,164,-0.0776,0.4944,0.8262,0.4883,3.4180,0.0610,0,0,0,1,0
29.660,100.419,251,63,61,74,160,-0.0779,0.5071,0.8293,-1.5869,-1.0986,-0.3662,0,0,0,1,0
29.670,100.367,250,62,61,75,161,-0.0836,0.4993,0.8472,-1.4648,-1.2207,0.1221,0,0,0,1,0
29.670,100.426,249,62,60,73,158,-0.0746,0.5011,0.8209,-2.6245,-0.0610,1.3428,0,0,0,1,0
29.670,100.427,252,61,59,73,159,-0.0729,0.4924,0.8280,1.6479,1.0986,0.0000,0,0,0,1,0
29.660,100.424,251,61,60,73,158,-0.0734,0.4968,0.8442,-4.4556,-0.6714,-1.0986,0,0,0,1,0
29.670,100.431,252,61,59,73,158,-0.0714,0.4995,0.8179,-1.8311,1.5259,2.7466,0,0,0,1,0
29.670,100.422,251,62,59,73,157,-0.0797,0.5052,0.8285,-1.2207,0.6714,-2.5024,0,0,0,1,0
29.660,100.428,251,61,60,73,158,-0.0679,0.4924,0.8379,-2.7466,-1.6479,0.4272,0,0,0,1,0
29.650,100.355,250,61,59,72,156,-0.0830,0.5066,0.8324,-0.6104,1.9531,0.6104,0,0,0,1,0
29.650,100.417,251,61,58,70,154,-0.0634,0.4860,0.8417,-1.8921,-0.2441,-1.0376,0,0,0,1,0
29.670,100.423,251,60,57,70,153,-0.0646,0.4922,0.8297,-1.9531,2.0752,2.1362,0,0,0,1,0
29.660,100.425,252,60,57,70,152,-0.0624,0.4960,0.8376,-1.7090,-0.1221,0.7324,0,0,0,1,0
29.660,100.424,250,60,57,70,153,-0.0724,0.4958,0.8331,1.2207,-1.4648,3.1128,0,0,0,1,0
29.670,100.429,252,60,57,70,153,-0.0636,0.4877,0.8324,-0.8545,3.0518,-2.4414,0,0,0,1,0
29.650,100.404,252,60,56,69,151,-0.0638,0.4933,0.8380,-3.1128,-2.3193,-3.3569,0,0,0,1,0
29.650,100.389,252,61,57,71,153,-0.0681,0.4962,0.8383,0.9155,-1.4038,2.9907,0,0,0,1,0
29.650,100.418,252,60,58,70,153,-0.0759,0.5032,0.8381,-2.1973,-3.9673,-3.8452,0,0,0,1,0
29.670,100.432,251,59,57,69,152,-0.0817,0.4829,0.8561,-2.6855,-3.1738,-1.9531,0,0,0,1,0
29.660,100.428,251,59,56,68,150,-0.0848,0.4723,0.8428,5.0049,-3.2349,7.2021,0,0,0,1,0
29.670,100.431,252,58,54,65,146,-0.0919,0.4723,0.8441,5.0659,1.0986,0.3662,0,0,0,1,0
29.650,100.426,250,56,51,61,138,-0.0945,0.4319,0.8523,15.5640,-4.0894,7.5684,0,0,0,1,0
29.660,100.289,251,53,48,58,129,-0.1187,0.4265,0.8926,4.8828,-1.4648,3.1738,0,0,0,1,0
29.670,100.426,253,53,45,54,123,-0.1177,0.4303,0.8722,20.9961,12.5732,8.7891,0,0,0,1,0
29.670,100.426,250,49,39,46,107,-0.0824,0.3947,0.8729,12.3291,-3.2349,-6.0425,0,0,0,1,0
29.660,100.428,250,48,37,44,103,-0.0413,0.3788,0.8488,24.5972,-5.0659,-5.1880,0,0,0,1,0
29.670,100.432,251,45,31,34,92,-0.1724,0.4014,0.9485,16.6016,-30.5786,-9.5215,0,0,0,1,0
29.670,100.425,252,44,29,31,88,-0.1047,0.2653,0.9833,60.9741,81.0547,-57.5562,0,0,0,1,0
29.660,100.317,252,41,27,28,81,-0.0233,0.0215,0.9402,-55.7251,6.4087,-88.3179,0,0,1,0,0
29.650,100.421,248,42,27,28,82,0.1184,-0.0657,0.7673,95.9473,13.8550,40.8936,0,0,1,0,0
29.670,100.431,251,39,25,26,76,0.0417,0.0828,1.0978,24.8413,-37.2925,77.1484,0,0,1,0,0
29.660,100.423,251,37,24,24,73,0.0548,-0.0376,0.9574,42.9077,47.3022,23.5596,0,0,1,0,0
29.670,100.431,252,36,23,23,70,0.0612,-0.1777,0.9255,29.7852,-8.9722,-19.1040,0,0,1,0,0
29.670,100.427,251,36,22,22,70,0.0228,-0.2928,0.9962,12.5122,-21.1792,-31.4941,0,0,1,0,0
29.670,100.427,251,36,22,22,69,-0.0001,-0.3643,0.9541,58.5327,-0.5493,14.8926,0,0,1,0,0
29.660,100.354,251,36,22,22,69,0.0219,-0.3394,0.8965,24.5361,6.5918,13.4888,0,0,1,0,0
29.670,100.421,253,36,22,22,69,0.0193,-0.4188,0.9506,-10.9863,-1.7090,-21.0571,0,0,1,0,0
29.660,100.423,252,36,22,22,70,0.0992,-0.3700,0.8760,6.9580,28.4424,-1.8311,0,0,1,0,0
29.660,100.432,251,36,22,22,70,0.0342,-0.3639,0.9307,-24.3530,-17.5171,-6.9580,0,0,1,0,0
29.670,100.426,251,36,22,22,70,0.0494,-0.3494,0.9243,-3.2349,1.2817,4.3335,0,0,1,0,0
29.650,100.425,250,36,22,22,70,0.0343,-0.3560,0.9235,-14.9536,-7.7515,-10.4370,0,0,1,0,0
29.640,100.330,252,36,22,22,69,0.0343,-0.3624,0.9357,-3.0518,3.9062,1.2207,0,0,1,0,0
29.630,100.418,252,36,22,22,70,0.0441,-0.3301,0.9142,-2.2583,0.7324,-1.7090,0,0,1,0,0
29.650,100.428,252,36,22,22,70,0.0339,-0.3383,0.9325,-3.7231,1.5259,-2.3193,0,0,1,0,0
29.640,100.426,250,36,22,22,70,0.0510,-0.3420,0.9172,-0.7324,0.9766,-1.3428,0,0,1,0,0
29.670,100.431,251,36,22,22,70,0.0475,-0.3302,0.9282,-4.7607,-0.0610,-3.0518,0,0,1,0,0
29.650,100.423,252,36,22,22,70,0.0398,-0.3326,0.9310,-0.6714,-0.1221,-0.4883,0,0,1,0,0
29.650,100.423,252,36,22,22,70,0.0352,-0.3270,0.9266,2.5024,0.1221,0.3662,0,0,1,0,0
29.640,100.361,251,36,22,22,70,0.0497,-0.3235,0.9180,-6.6528,3.7231,-3.3569,0,0,1,0,0
29.650,100.426,252,36,22,22,70,0.0298,-0.3174,0.9463,-5.6763,-2.3804,-5.0049,0,0,1,0,0
29.620,100.424,251,36,22,22,69,0.0294,-0.3157,0.9427,-5.1880,-0.7324,-2.3804,0,0,1,0,0
29.640,100.427,250,36,22,22,69,0.0292,-0.3171,0.9625,-7.6294,-5.9204,-1.9531,0,0,1,0,0
29.640,100.428,252,36,22,22,69,0.0242,-0.2970,0.9335,0.2441,0.6714,3.6011,0,0,1,0,0
29.630,100.427,250,36,22,22,70,0.0370,-0.2915,0.9146,0.6714,2.1973,0.7324,0,0,1,0,0
29.630,100.364,250,36,22,22,69,0.0226,-0.3058,0.9630,-4.1504,-4.2725,-1.7700,0,0,1,0,0
29.630,100.430,251,36,22,22,69,0.0209,-0.2877,0.9354,-0.5493,-2.0142,0.0610,0,0,1,0,0
29.630,100.421,251,36,22,22,69,0.0244,-0.3021,0.9443,-3.7842,-1.2207,1.5259,0,0,1,0,0
29.640,100.429,252,36,22,22,69,0.0164,-0.2902,0.9414,-3.7842,-0.6714,-0.7935,0,0,1,0,0
29.650,100.426,252,36,22,22,70,0.0251,-0.2980,0.9369,1.7090,0.7935,0.5493,0,0,1,0,0
29.640,100.421,251,36,22,22,70,0.0281,-0.3108,0.9508,2.5635,1.7090,3.7231,0,0,1,0,0
29.640,100.424,251,36,22,22,69,0.0381,-0.2936,0.9130,-1.8921,-1.9531,-2.5635,0,0,1,0,0
29.640,100.352,252,36,22,22,70,0.0364,-0.2944,0.9324,0.3052,2.4414,0.0610,0,0,1,0,0
29.650,100.425,248,36,22,22,69,0.0306,-0.2985,0.9452,-3.1128,-0.5493,-1.1597,0,0,1,0,0
29.660,100.423,252,36,22,22,70,0.0315,-0.2866,0.9417,0.7324,3.1738,2.3804,0,0,1,0,0
29.640,100.425,251,36,22,22,70,0.0282,-0.2959,0.9552,-11.1694,-6.6528,-4.4556,0,0,1,0,0
29.650,100.426,252,36,22,22,69,0.0312,-0.2911,0.9384,2.8687,4.0283,5.3711,0,0,1,0,0
29.640,100.429,252,36,22,22,70,0.0309,-0.2969,0.9473,-2.8687,-3.1738,-4.5776,0,0,1,0,0
29.650,100.391,251,36,22,22,69,0.0413,-0.2874,0.9420,-5.6152,1.2817,-1.5869,0,0,1,0,0
29.650,100.399,252,36,22,22,69,0.0293,-0.2856,0.9497,-1.8311,1.3428,-2.5635,0,0,1,0,0
29.640,100.430,250,36,22,22,69,0.0267,-0.2850,0.9470,-0.1831,0.4883,-0.3052,0,0,1,0,0
29.640,100.422,249,36,22,22,69,0.0310,-0.2805,0.9462,-6.5918,0.6714,-0.6714,0,0,1,0,0
29.650,100.426,251,36,22,22,70,0.0303,-0.2805,0.9489,-1.6479,-2.1973,-1.5259,0,0,1,0,0
29.650,100.427,251,36,22,22,69,0.0316,-0.2828,0.9396,-0.4883,0.7935,-0.6104,0,0,1,0,0
29.640,100.427,250,36,22,22,70,0.0303,-0.2767,0.9509,-3.6621,0.1831,-0.4883,0,0,1,0,0
29.640,100.304,252,36,22,22,70,0.0328,-0.2659,0.9374,-1.2817,1.5259,-0.6104,0,0,1,0,0
29.640,100.428,250,36,22,22,70,0.0288,-0.2828,0.9602,-3.2349,-0.6714,-0.9155,0,0,1,0,0
29.640,100.426,252,36,22,22,70,0.0383,-0.2699,0.9478,-3.9062,-0.9155,-0.6714,0,0,1,0,0
29.630,100.425,252,36,22,22,70,0.0272,-0.2557,0.9474,-0.4272,2.4414,-2.5024,0,0,1,0,0
29.620,100.424,251,36,22,22,70,0.0321,-0.2687,0.9552,-4.3335,-1.2817,-0.6714,0,0,1,0,0
29.640,100.430,249,36,22,22,70,0.0405,-0.2692,0.9354,0.4272,-0.2441,0.1221,0,0,1,0,0
29.630,100.423,252,36,22,22,70,0.0288,-0.2697,0.9532,0.1221,0.4272,-1.0986,0,0,1,0,0
29.640,100.375,248,36,22,22,71,0.0319,-0.2716,0.9542,-6.7749,-3.9673,-1.5869,0,0,1,0,0
29.640,100.434,250,36,22,22,70,0.0271,-0.2511,0.9531,-0.3052,1.2207,1.0376,0,0,1,0,0
29.640,100.426,252,36,22,22,70,0.0383,-0.2848,0.9344,-4.5776,-0.4272,-6.1646,0,0,1,0,0
29.630,100.419,252,36,22,22,70,0.0155,-0.2626,0.9609,3.3569,1.0986,-1.6479,0,0,1,0,0
29.630,100.417,250,36,22,22,70,0.0187,-0.2568,0.9611,-2.8687,-1.2817,0.9766,0,0,1,0,0
29.630,100.427,252,36,22,22,70,0.0258,-0.2617,0.9469,1.9531,-2.2583,1.4038,0,0,1,0,0
29.620,100.361,250,36,22,22,70,0.0284,-0.2621,0.9436,-1.8921,1.4648,-0.6104,0,0,1,0,0
29.640,100.425,250,36,22,22,70,0.0237,-0.2598,0.9535,-2.1362,-2.1973,-1.6479,0,0,1,0,0
29.640,100.430,252,36,22,22,70,0.0305,-0.2517,0.9463,-2.0142,1.8311,2.0752,0,0,1,0,0
29.640,100.428,253,36,22,22,70,0.0248,-0.2499,0.9604,-3.0518,-2.1362,-0.3052,0,0,1,0,0
29.650,100.431,251,36,22,22,70,0.0284,-0.2638,0.9553,-2.2583,-3.9062,1.7090,0,0,1,0,0
29.650,100.428,249,36,22,22,70,0.0194,-0.2512,0.9564,-4.4556,0.1831,-1.2817,0,0,1,0,0
29.640,100.424,251,36,22,22,70,0.0276,-0.2562,0.9595,-2.7466,-2.0752,0.2441,0,0,1,0,0
29.640,100.362,251,36,22,22,70,0.0203,-0.2415,0.9470,-0.1831,0.4883,1.8311,0,0,1,0,0
29.650,100.426,253,36,22,22,70,0.0269,-0.2424,0.9592,-6.2256,0.1831,-3.2349,0,0,1,0,0
29.640,100.432,248,36,22,22,70,0.0131,-0.2375,0.9548,-8.9111,-10.3149,-4.0283,0,0,1,0,0
29.650,100.425,250,36,22,22,69,-0.0077,-0.2073,0.9645,-9.4604,-7.2632,-3.9673,0,0,1,0,0
29.620,100.423,248,36,22,22,70,-0.0170,-0.2048,0.9626,1.1597,-1.7090,1.8311,0,0,1,0,0
29.650,100.426,250,36,22,22,70,-0.0151,-0.2083,0.9856,-2.4414,1.0376,-0.7935,0,0,1,0,0
29.650,100.362,252,36,22,22,70,-0.0142,-0.1993,0.9625,-11.5356,-5.6152,-3.5400,0,0,1,0,0
29.650,100.430,249,36,23,23,70,-0.0326,-0.1765,0.9404,-27.1606,-17.6392,-13.1836,0,0,1,0,0
29.630,100.422,250,36,23,23,70,-0.1155,-0.0782,0.9758,-48.3398,-10.9253,-22.0337,0,0,1,0,0
29.650,100.427,251,37,25,25,73,-0.1520,0.0482,0.9703,-57.9834,-18.6768,-13.9160,1,0,0,0,0
29.650,100.419,251,39,26,26,77,-0.2126,0.1891,0.8629,-1.7090,24.2310,42.7246,1,0,0,0,0
29.660,100.428,250,39,26,26,76,-0.1466,0.2061,0.9287,-6.0425,-8.7891,22.8271,1,0,0,0,0
29.640,100.380,251,39,27,27,77,-0.1171,0.1458,0.9883,-14.6484,-3.4180,-28.5034,1,0,0,0,0
29.650,100.423,252,40,28,27,79,-0.0927,0.1670,0.8999,-30.5176,-23.5596,-3.2349,1,0,0,0,0
29.630,100.425,250,40,28,27,79,-0.2305,0.2611,0.8617,12.8174,-17.1509,49.6826,1,0,0,0,0
29.650,100.422,252,38,26,26,75,-0.2961,0.2531,0.8927,-31.0669,3.6011,-26.4893,1,0,0,0,0
29.650,100.430,252,39,27,26,76,-0.3458,0.1781,0.9283,-27.9541,-13.1226,-9.2773,1,0,0,0,0
29.630,100.429,251,39,27,26,76,-0.2672,0.1782,0.9160,25.1465,11.9629,28.1372,1,0,0,0,0
29.620,100.422,251,38,26,26,75,-0.2925,0.2035,0.9434,-9.5215,0.4883,2.3193,1,0,0,0,0
29.640,100.301,250,39,27,26,76,-0.2980,0.1742,0.9379,-19.4702,-2.3193,-8.7280,1,0,0,0,0
29.630,100.428,248,39,27,27,77,-0.2821,0.1947,0.9086,9.0332,9.7656,10.0708,1,0,0,0,0
29.640,100.429,250,39,27,26,77,-0.2605,0.1943,0.9392,-3.8452,-3.7231,-2.9297,1,0,0,0,0
29.650,100.426,250,39,27,27,77,-0.2656,0.1703,0.9293,-9.0332,2.9297,-4.5776,1,0,0,0,0
29.650,100.424,250,40,27,27,77,-0.2523,0.1755,0.9226,-0.5493,2.8687,4.2725,1,0,0,0,0
29.670,100.426,252,39,27,27,77,-0.2659,0.1926,0.9524,-6.9580,-5.0049,-1.6479,1,0,0,0,0
29.650,100.318,251,40,27,27,78,-0.2273,0.1703,0.9344,-3.2959,7.2632,-2.4414,1,0,0,0,0
29.680,100.426,251,40,27,27,78,-0.2258,0.1958,0.9388,-4.3945,1.5869,2.7466,1,0,0,0,0
29.650,100.421,251,40,27,27,78,-0.2048,0.1606,0.9318,-0.1221,6.5308,-1.5869,1,0,0,0,0
29.660,100.428,250,40,27,27,78,-0.2129,0.1882,0.9338,0.9155,3.9062,3.3569,1,0,0,0,0
29.650,100.420,252,40,27,27,78,-0.2260,0.1919,0.9500,1.0986,-1.9531,5.2490,1,0,0,0,0
29.670,100.424,251,40,27,27,78,-0.2111,0.1768,0.9470,5.6763,5.4321,-0.3662,1,0,0,0,0
29.660,100.428,251,40,27,27,78,-0.4933,0.2233,1.1726,-1.0986,15.8081,4.2114,1,0,0,0,0
29.650,100.337,251,40,27,27,78,-0.2347,0.0479,0.9016,54.3823,85.6934,16.1133,1,0,0,0,0
29.650,100.421,250,39,25,26,78,0.2157,0.1393,0.8542,35.2783,190.6128,5.5542,0,1,0,0,0
29.670,100.435,251,32,19,20,63,0.6166,-0.0295,0.5991,68.2373,129.2114,54.0161,0,1,0,0,0
29.650,100.429,244,27,15,16,53,0.7391,0.0879,0.5331,3.1738,35.7056,15.0757,0,1,0,0,0
29.660,100.422,239,25,14,15,50,0.6892,0.0658,0.6302,-57.5562,-34.0576,-33.5693,0,1,0,0,0
29.650,100.422,241,27,16,17,54,0.5406,0.1056,0.8694,-83.9233,-30.3345,-69.8242,0,1,0,0,0
29.660,100.335,242,28,17,18,57,0.6047,-0.0132,0.8202,-37.0483,15.4419,-31.9824,0,1,0,0,0
29.670,100.426,242,27,16,18,54,0.6770,-0.0112,0.7399,24.7192,56.7627,27.7710,0,1,0,0,0
29.670,100.432,236,23,13,14,45,0.7231,0.0236,0.5718,70.8008,40.8936,73.4863,0,1,0,0,0
29.690,100.423,235,22,11,13,42,0.7633,0.1038,0.5942,42.3584,1.3428,51.4526,0,1,0,0,0
29.700,100.425,234,23,12,13,44,0.7273,0.1628,0.6764,-29.4800,-20.0806,-8.1177,0,1,0,0,1
29.690,100.422,238,23,12,14,45,0.7219,0.0675,0.6688,-12.6953,-16.1743,-17.2729,0,1,0,0,1
29.670,100.423,241,24,13,14,46,0.6807,0.1055,0.7218,4.4556,-7.2632,2.5024,0,1,0,0,1
29.680,100.360,236,24,13,14,46,0.6849,0.1189,0.6783,-3.2959,9.0332,0.1831,0,1,0,0,1
29.680,100.430,237,23,12,14,45,0.7201,0.1274,0.6171,5.9814,8.1177,-1.6479,0,1,0,0,1
29.690,100.424,239,23,12,14,45,0.7057,0.1445,0.6659,-16.3574,-9.8877,-15.0757,0,1,0,0,1
29.690,100.429,238,23,13,14,45,0.7039,0.0702,0.6744,-34.9731,-21.3013,-24.6582,0,1,0,0,1
29.680,100.423,240,24,14,15,48,0.6677,0.0646,0.7574,-20.3857,-11.8408,-17.3950,0,1,0,0,1
29.700,100.423,239,25,14,15,48,0.6735,0.0559,0.7157,-1.0986,6.6528,0.5493,0,1,0,0,1
29.700,100.406,235,24,14,15,47,0.6860,0.0856,0.6738,10.8643,6.4697,9.4604,0,1,0,0,1
29.690,100.384,238,24,13,15,47,0.6748,0.0936,0.7146,-4.2114,-4.5166,-6.0425,0,1,0,0,1
29.690,100.427,239,24,13,15,47,0.7008,0.0591,0.6921,-8.4839,-1.7700,-3.6621,0,1,0,0,1
29.700,100.425,236,24,13,15,46,0.6864,0.0754,0.6880,0.6104,3.4180,6.5308,0,1,0,0,1
29.680,100.425,237,23,13,14,46,0.6956,0.0870,0.6611,1.8921,2.3193,0.1831,0,1,0,0,1
29.700,100.421,238,23,13,14,46,0.6947,0.0640,0.6731,-3.3569,-3.7842,-5.3711,0,1,0,0,1
29.690,100.425,236,24,13,15,46,0.6771,0.0828,0.6934,4.5776,4.5166,-0.3662,0,1,0,0,1
29.700,100.361,241,23,13,15,46,0.7014,0.0844,0.6713,1.2207,3.0518,1.9531,0,1,0,0,1
29.700,100.425,235,23,13,14,46,0.6971,0.0824,0.6887,-1.5259,-2.0752,-1.9531,0,1,0,0,1
29.710,100.423,237,23,13,14,46,0.6884,0.0872,0.6855,-9.9487,-2.7466,2.1973,0,1,0,0,1
29.700,100.424,236,23,13,15,46,0.6985,0.0997,0.6722,-1.5869,4.2114,2.3193,0,1,0,0,1
29.690,100.426,236,23,13,14,46,0.6960,0.0908,0.6613,2.5635,-1.4038,-1.2207,0,1,0,0,1
29.700,100.428,236,24,13,15,46,0.6927,0.0961,0.6871,-11.9629,-7.2632,-5.9204,0,1,0,0,1
29.690,100.404,237,24,14,15,48,0.6296,0.1292,0.6995,-1.1597,-1.1597,11.6577,0,1,0,0,1
29.680,100.365,239,24,13,15,47,0.7090,0.0518,0.6720,-2.1973,4.3945,-14.5264,0,1,0,0,1
29.690,100.425,238,24,14,15,47,0.6481,0.1182,0.7527,3.2349,-14.1602,18.3105,0,1,0,0,1
29.680,100.422,238,24,13,15,48,0.6927,0.0740,0.6876,0.0000,8.9722,-6.1646,0,1,0,0,1
29.670,100.415,238,24,14,15,47,0.6426,0.1200,0.7156,-4.5166,-4.8828,7.7515,0,1,0,0,1
29.710,100.425,239,24,13,15,47,0.6779,0.1017,0.6860,3.1738,8.6670,-0.4883,0,1,0,0,1
29.710,100.423,239,24,13,15,47,0.6785,0.0890,0.6748,-4.3945,-8.3618,-1.4648,0,1,0,0,1
29.720,100.302,241,24,14,15,48,0.6680,0.0966,0.7251,2.1973,0.4272,-1.7090,0,1,0,0,1
29.710,100.427,237,24,14,15,48,0.6777,0.0823,0.6794,-6.3477,1.2817,-1.4648,0,1,0,0,1
29.720,100.428,241,24,14,15,48,0.6772,0.1030,0.7163,0.3662,-1.5259,-0.3662,0,1,0,0,1
29.710,100.427,237,24,14,15,47,0.6736,0.0790,0.6797,-4.7607,-2.6855,-2.7466,0,1,0,0,1
29.710,100.427,239,24,14,15,48,0.6704,0.0942,0.7375,-5.1270,-2.3804,-1.5259,0,1,0,0,1
29.720,100.422,238,24,14,15,48,0.6692,0.0889,0.6912,3.5400,2.1973,6.6528,0,1,0,0,1
29.720,100.426,239,24,13,15,47,0.6614,0.1007,0.7102,-2.4414,-4.0894,-0.4883,0,1,0,0,1
29.720,100.358,237,24,14,15,48,0.6649,0.0930,0.6989,-8.1177,1.2817,-3.7231,0,1,0,0,1
29.730,100.427,236,24,14,15,47,0.6772,0.0986,0.7148,-0.5493,2.3804,1.6479,0,1,0,0,1
29.730,100.427,238,24,13,15,47,0.6842,0.0809,0.6725,-5.0659,8.7891,-3.6621,0,1,0,0,1
29.720,100.424,239,24,13,15,46,0.6827,0.0881,0.6901,-3.1128,-6.2866,1.2207,0,1,0,0,1
29.720,100.429,238,24,13,15,47,0.6836,0.0824,0.6947,-4.2114,-0.0610,-2.5635,0,1,0,0,1
29.710,100.420,237,24,13,15,46,0.6893,0.0729,0.6666,-0.4272,5.1880,-5.1270,0,1,0,0,1
29.720,100.346,238,23,13,15,46,0.6917,0.0728,0.6919,-0.1221,-4.1504,-2.6245,0,1,0,0,1
29.720,100.420,239,24,13,15,46,0.6906,0.0756,0.6962,-3.7231,0.0000,-0.9766,0,1,0,0,1
29.710,100.432,238,23,13,15,46,0.6923,0.0808,0.6824,1.5869,5.0659,-0.9766,0,1,0,0,1
29.720,100.425,237,23,13,14,46,0.6962,0.0709,0.6738,-1.5259,-1.6479,-0.0610,0,1,0,0,1
29.720,100.424,235,23,13,14,46,0.6954,0.0758,0.6732,-1.2207,0.3662,3.0518,0,1,0,0,1
29.730,100.428,236,23,13,14,45,0.6937,0.0768,0.6790,-3.6621,-5.5542,2.4414,0,1,0,0,1
29.740,100.427,238,23,13,15,46,0.7056,0.0703,0.6587,8.4229,2.9297,0.7935,0,1,0,0,1
29.720,100.359,237,23,13,14,46,0.6832,0.0815,0.6917,-4.0894,-7.0801,-0.7935,0,1,0,0,1
29.730,100.428,238,24,13,15,47,0.6782,0.0791,0.7095,-6.3477,-5.4321,-0.6104,0,1,0,0,1
29.710,100.421,238,24,13,15,47,0.6897,0.0669,0.6783,-1.0986,2.4414,1.7700,0,1,0,0,1
29.720,100.423,239,24,14,15,47,0.6752,0.0997,0.6943,-1.0986,3.0518,-1.4648,0,1,0,0,1
29.730,100.428,238,24,13,15,47,0.6842,0.0734,0.6895,-3.9062,-3.1738,-1.3428,0,1,0,0,1
29.720,100.423,237,24,13,15,47,0.6730,0.0801,0.7053,-0.3052,-0.1221,-0.6714,0,1,0,0,1
29.740,100.364,238,24,13,15,47,0.6781,0.0846,0.6930,-16.1133,6.2866,-1.4648,0,1,0,0,1
29.750,100.427,235,23,13,15,46,0.7190,0.1108,0.6182,16.9678,11.0474,17.6392,0,1,0,0,1
29.730,100.428,238,23,13,14,45,0.6793,0.1401,0.6923,-9.8267,-5.4932,-4.5166,0,1,0,0,1
29.730,100.422,239,23,13,15,46,0.7045,0.0729,0.6637,-9.4604,-3.0518,-5.6152,0,1,0,0,1
29.740,100.426,237,24,13,15,46,0.6848,0.1150,0.6766,4.2114,1.2817,4.6997,0,1,0,0,1
29.740,100.431,239,23,13,14,46,0.6995,0.0774,0.6641,-1.1597,-5.4321,-2.4414,0,1,0,0,1
29.720,100.424,236,24,13,15,46,0.6953,0.0840,0.6797,-1.4038,-2.0142,-2.8076,0,1,0,0,1
29.710,100.321,238,24,14,15,47,0.6953,0.0840,0.6691,1.6479,-9.0332,3.1738,0,1,0,0,1
29.740,100.430,238,25,15,16,50,0.6846,0.1099,0.7234,-16.3574,-19.4092,0.9766,0,1,0,0,1
29.730,100.425,242,26,16,17,53,0.6575,0.0809,0.5400,22.9492,-43.5791,24.3530,0,1,0,0,1
29.720,100.426,246,31,19,20,63,0.3704,0.2493,0.7770,-50.9644,-122.6196,-14.8926,0,1,0,0,1
29.730,100.426,249,39,25,26,77,0.1125,0.1733,0.8950,-80.3833,-133.3008,-29.5410,0,1,0,0,1
29.710,100.426,249,45,32,34,91,-0.1776,0.3628,0.9922,-25.5737,-57.0068,41.6870,0,0,0,1,1
29.720,100.362,248,45,33,35,90,-0.1987,0.3615,0.9565,46.0205,-11.0474,46.0815,0,0,0,1,1
29.700,100.425,251,44,32,34,88,-0.2775,0.3531,0.9612,-9.5825,-45.3491,0.5493,1,0,0,0,1
29.710,100.431,252,44,35,38,89,-0.2577,0.2749,0.9099,25.4517,18.6157,3.1128,1,0,0,0,1
29.680,100.426,251,44,31,33,87,-0.2152,0.2722,0.9269,-4.0283,2.5635,-5.4932,1,0,0,0,1
29.700,100.422,252,44,31,33,87,-0.2100,0.2633,0.9187,-0.9766,0.1221,-0.8545,1,0,0,0,1
29.710,100.428,250,44,31,33,87,-0.2061,0.2727,0.9368,1.7090,3.2959,-2.6245,1,0,0,0,1
29.720,100.426,252,44,31,32,87,-0.1888,0.2552,0.9169,1.5869,0.9155,1.0376,1,0,0,0,1
29.720,100.320,251,44,31,32,87,-0.2007,0.2744,0.9431,-7.9346,-1.2817,-2.8687,1,0,0,0,0
29.720,100.425,251,44,31,32,87,-0.1702,0.2743,0.9028,2.0752,5.4932,3.4790,1,0,0,0,0
29.730,100.426,251,44,31,32,87,-0.1687,0.2545,0.9264,0.4272,1.2817,-4.7607,1,0,0,0,0
29.720,100.428,252,44,31,32,88,-0.1665,0.2772,0.9231,3.6011,5.5542,3.2959,1,0,0,0,0
29.720,100.426,251,44,31,32,87,-0.1597,0.2712,0.9196,1.8311,2.1973,-2.2583,1,0,0,0,0
29.730,100.433,251,44,31,32,88,-0.1670,0.2767,0.9338,0.3662,2.3193,1.1597,1,0,0,0,0
29.720,100.422,251,44,30,31,87,-0.1562,0.2755,0.9163,-4.0283,-0.7324,0.7935,1,0,0,0,0
29.720,100.378,251,44,30,32,88,-0.1653,0.2639,0.9364,-3.6011,-3.6011,-3.1128,1,0,0,0,0
29.710,100.430,249,44,31,33,88,-0.1617,0.2748,0.9257,3.1738,5.3711,5.1270,1,0,0,0,0
29.720,100.424,251,44,30,31,88,-0.1595,0.2772,0.9296,-6.6528,-1.5869,-3.2349,1,0,0,0,0
29.730,100.423,250,44,31,32,88,-0.1545,0.2610,0.9260,-1.5869,0.6714,-0.7324,1,0,0,0,0
29.720,100.425,248,44,31,32,88,-0.1506,0.2635,0.9241,1.8921,2.1362,0.7324,1,0,0,0,0
29.730,100.423,253,44,30,32,88,-0.1486,0.2719,0.9303,-8.1177,-1.5259,-2.2583,1,0,0,0,0
29.730,100.364,251,44,31,32,88,-0.1506,0.2668,0.9321,0.4272,-1.0376,1.7090,1,0,0,0,0
29.750,100.433,252,44,30,32,88,-0.1531,0.2603,0.9313,1.6479,-0.4272,0.3662,1,0,0,0,0
29.730,100.428,251,44,31,32,88,-0.1617,0.2667,0.9357,-1.5259,0.7324,-2.6245,1,0,0,0,0
29.720,100.425,250,44,30,32,88,-0.1490,0.2781,0.9427,-5.3711,-2.1973,0.7324,1,0,0,0,0
29.720,100.425,251,44,30,32,88,-0.1450,0.2727,0.9158,-4.5166,0.6714,2.1973,1,0,0,0,0
29.740,100.436,251,44,30,31,88,-0.1545,0.2777,0.9308,-3.2959,-2.4414,-0.1221,1,0,0,0,0
29.720,100.425,250,44,30,32,88,-0.1490,0.2673,0.9320,-2.9907,-0.1221,-0.7935,1,0,0,0,0
29.740,100.346,250,44,30,32,88,-0.1404,0.2660,0.9193,7.5684,3.2349,3.6011,1,0,0,0,0
29.730,100.426,251,44,30,32,88,-0.1448,0.2634,0.9335,-8.9722,-4.7607,-5.5542,1,0,0,0,0
29.730,100.428,251,44,31,32,88,-0.1537,0.2793,0.9275,7.2632,7.0190,8.1177,1,0,0,0,0
29.730,100.430,251,44,30,31,88,-0.1494,0.2811,0.9332,-9.0942,-0.7324,-4.5776,1,0,0,0,0
29.730,100.430,251,44,30,32,88,-0.1309,0.2673,0.9363,-1.1597,0.4883,0.6714,0,0,0,1,0
29.720,100.419,252,44,30,32,88,-0.1332,0.2737,0.9266,-0.8545,-0.0610,1.8311,0,0,0,1,0
29.740,100.365,250,44,30,31,88,-0.1403,0.2715,0.9288,-1.0376,0.0610,-2.9297,1,0,0,0,0
29.740,100.433,250,44,30,32,88,-0.1593,0.2770,0.9615,-7.7515,-10.0098,3.0518,1,0,0,0,0
29.730,100.423,252,44,31,32,88,-0.1420,0.2598,0.9132,2.0752,6.0425,0.1831,1,0,0,0,0
29.720,100.424,250,44,30,31,88,-0.1333,0.2695,0.9294,-3.3569,-1.2207,-2.3804,1,0,0,0,0
29.730,100.428,251,44,30,32,88,-0.1270,0.2599,0.9073,0.1831,-3.7842,-0.4272,1,0,0,0,0
29.740,100.426,253,44,30,32,88,-0.1581,0.2738,0.9545,-2.0142,1.4648,-3.6011,1,0,0,0,0
29.720,100.434,252,44,31,32,88,-0.1346,0.2727,0.9282,-0.6104,0.7324,4.0894,0,0,0,1,0
29.730,100.336,251,44,30,31,88,-0.1409,0.2841,0.9263,-5.1270,-3.2349,1.0986,0,0,0,1,0
29.730,100.425,251,44,30,31,88,-0.1450,0.2732,0.9391,-6.5308,-5.1270,-1.2817,1,0,0,0,0
29.740,100.433,251,44,30,32,88,-0.1278,0.2592,0.9269,-2.9297,-2.3804,0.8545,1,0,0,0,0
29.720,100.427,252,44,30,31,88,-0.1459,0.2684,0.9332,-2.7466,0.0000,1.3428,1,0,0,0,0
29.730,100.421,252,44,30,31,88,-0.1456,0.2609,0.9275,-6.8970,-4.6997,-1.9531,1,0,0,0,0
29.720,100.426,250,44,30,32,88,-0.1365,0.2568,0.9160,8.3618,4.8218,1.5259,1,0,0,0,0
29.730,100.293,251,44,30,31,87,-0.1599,0.2738,0.9431,-2.2583,-1.7700,-5.2490,1,0,0,0,0
29.710,100.422,251,44,30,31,88,-0.2290,0.3030,1.0359,-29.6631,-12.6343,-31.6162,1,0,0,0,0
29.710,100.427,248,46,39,42,93,-0.1703,0.2939,0.9774,-31.3721,14.1602,-34.0576,1,0,0,0,0
29.740,100.433,251,52,49,52,114,-0.0698,0.4204,0.8677,2.3193,61.0962,28.1982,0,0,0,1,0
29.730,100.424,252,48,39,44,99,0.1678,0.3673,0.6715,31.5552,84.5947,36.0718,0,0,0,1,0
29.740,100.430,251,47,35,40,97,0.1660,0.5082,0.7729,-53.6499,-24.5972,-12.0239,0,0,0,1,0
29.730,100.426,251,59,57,65,146,0.0948,0.5847,0.7622,-61.1572,-24.7803,-37.8418,0,0,0,1,0
29.740,100.365,251,94,97,107,243,0.0741,0.6332,0.7571,-15.3809,-12.2681,-3.7231,0,0,0,1,0
29.740,100.419,249,98,99,110,255,0.0695,0.6068,0.7172,35.4614,15.6250,34.7900,0,0,0,1,0
29.730,100.431,250,77,81,94,201,0.0250,0.6205,0.7659,-0.6104,-5.6763,13.0005,0,0,0,1,0
29.720,100.424,251,76,80,92,196,0.0155,0.5547,0.7937,-0.1831,-9.3384,5.6152,0,0,0,1,0
29.740,100.427,249,74,78,91,191,0.0004,0.5470,0.8018,12.3901,-10.0098,16.4185,0,0,0,1,0
29.730,100.422,253,70,73,86,181,-0.0734,0.5581,0.7988,6.7139,-13.3057,12.8784,0,0,0,1,0
29.740,100.416,251,73,77,90,186,-0.0823,0.5350,0.8320,-5.3711,-11.6577,-3.9673,0,0,0,1,0
29.720,100.362,251,75,80,92,192,-0.0944,0.5240,0.8158,-0.4272,3.2349,12.3291,0,0,0,1,0
29.730,100.428,251,72,76,90,187,-0.0736,0.5577,0.7755,18.5547,18.5547,16.2964,0,0,0,1,0
29.720,100.429,253,61,61,72,158,-0.0958,0.5195,0.8158,0.3052,-9.0332,5.9204,0,0,0,1,0
29.730,100.425,251,66,68,81,173,-0.1267,0.4974,0.8490,-8.1787,-10.4370,-6.0425,0,0,0,1,0
29.740,100.426,252,66,68,81,172,-0.1001,0.5063,0.8115,4.3335,8.7891,8.6670,0,0,0,1,0
29.740,100.424,251,64,65,77,167,-0.1101,0.5184,0.8198,-5.0659,-1.0376,-2.1973,0,0,0,1,0
29.720,100.358,251,65,66,80,171,-0.1090,0.5089,0.8420,0.0000,-3.0518,-1.2207,0,0,0,1,0
29.720,100.418,251,65,66,79,170,-0.1066,0.5095,0.8208,2.2583,2.5635,3.3569,0,0,0,1,0
29.730,100.425,250,64,64,77,165,-0.1094,0.5078,0.8292,-2.5024,-1.4648,-2.2583,0,0,0,1,0
29.730,100.424,252,64,66,77,167,-0.1067,0.5063,0.8302,0.8545,2.5024,0.6714,0,0,0,1,0
29.740,100.426,250,62,62,73,160,-0.1066,0.4983,0.8413,-7.7515,-3.6011,-1.7700,0,0,0,1,0
29.730,100.425,250,63,62,75,162,-0.0925,0.4812,0.8193,4.8828,6.1646,3.2349,0,0,0,1,0
29.750,100.429,251,61,60,71,155,-0.1085,0.4987,0.8416,-0.4883,-2.9907,0.6714,0,0,0,1,0
29.740,100.356,251,61,60,71,157,-0.1062,0.4873,0.8428,-6.3477,-2.1362,-0.8545,0,0,0,1,0
29.740,100.423,251,62,62,73,160,-0.1121,0.4861,0.8419,6.7139,2.9907,5.6763,0,0,0,1,0
29.730,100.418,252,60,59,69,153,-0.0912,0.4886,0.8253,-0.9766,5.5542,-1.7090,0,0,0,1,0
29.750,100.425,251,60,58,69,153,-0.1014,0.4973,0.8406,-1.3428,2.3804,0.2441,0,0,0,1,0
29.760,100.425,251,59,57,68,151,-0.0853,0.4863,0.8411,3.8452,4.6387,0.4883,0,0,0,1,0
29.740,100.433,251,58,56,66,147,-0.0765,0.4843,0.8456,2.9907,6.8970,0.9155,0,0,0,1,0
29.760,100.287,252,57,54,64,143,-0.0784,0.4841,0.8489,-5.0049,-1.6479,-1.8921,0,0,0,1,0
29.760,100.421,249,57,54,64,143,-0.0665,0.4763,0.8391,-0.3052,2.8687,0.0610,0,0,0,1,0
29.760,100.430,249,57,53,62,141,-0.0765,0.4846,0.8500,-3.9673,-1.0376,-2.2583,0,0,0,1,0
29.750,100.425,251,57,52,62,139,-0.0706,0.4580,0.8545,0.9155,0.5493,-2.1973,0,0,0,1,1
29.760,100.430,253,56,51,60,137,-0.0470,0.4629,0.8575,2.9297,12.0239,0.9155,0,0,0,1,1
29.750,100.425,251,54,47,56,128,-0.0289,0.4657,0.8418,4.1504,5.7373,5.4321,0,0,0,1,1
29.760,100.426,252,54,46,55,126,-0.0425,0.5052,0.8728,-11.8408,8.9722,-9.8877,0,0,0,1,1
29.760,100.364,250,52,43,51,119,0.0110,0.4508,0.8486,13.8550,7.0190,2.3804,0,0,0,1,1
29.730,100.426,251,48,37,43,104,0.0411,0.4165,0.8705,25.5127,14.7705,-1.5869,0,0,0,1,1
29.750,100.427,251,45,30,32,90,0.0343,0.2705,0.8225,102.2339,-21.8506,-7.9956,0,0,0,1,1
29.750,100.426,252,43,29,30,88,-0.0309,0.4111,1.0913,10.8643,-7.2021,-10.4370,0,0,0,1,1
29.750,100.427,253,40,26,27,80,0.1329,0.0980,0.8192,157.7148,154.8462,1.0986,0,1,0,0,1
29.750,100.422,251,35,21,21,69,0.2505,-0.3016,0.7186,85.2661,-25.9399,-24.9023,0,0,1,0,1
29.750,100.366,251,36,22,22,70,0.1134,-0.4391,0.9692,1.8921,-69.6411,-24.9023,0,0,1,0,1
29.740,100.427,250,36,22,22,70,0.0803,-0.3948,0.9148,61.4624,11.9019,46.9360,0,0,1,0,1
29.730,100.427,251,37,23,22,72,0.1567,-0.4557,0.8882,-12.2070,-6.7749,-15.0757,0,0,1,0,1
29.740,100.430,251,37,23,22,71,0.1239,-0.4359,0.9091,-5.7373,4.9438,-9.2163,0,0,1,0,1
29.730,100.422,250,37,23,22,71,0.1318,-0.4396,0.8855,-8.8501,-4.8218,-17.3340,0,0,1,0,1
29.740,100.423,252,37,23,22,71,0.1487,-0.4070,0.8843,4.6997,6.1646,-4.6997,0,0,1,0,1
29.740,100.429,253,37,22,22,71,0.1334,-0.4280,0.8911,-9.8267,-5.7373,-6.5308,0,0,1,0,1
29.740,100.355,252,36,22,22,71,0.0988,-0.4205,0.9052,-5.4932,3.3569,-0.4272,0,0,1,0,1
29.730,100.431,251,37,22,22,71,0.1188,-0.3953,0.8636,0.8545,5.3711,-0.1831,0,0,1,0,1
29.760,100.427,252,37,22,22,71,0.1013,-0.4351,0.9009,-13.3667,-5.1880,-13.1836,0,0,1,0,1
29.750,100.426,252,36,22,22,72,0.1080,-0.3931,0.8948,-2.1973,4.8218,4.2114,0,0,1,0,1
29.750,100.427,251,36,22,22,72,0.0879,-0.3943,0.8944,-6.8359,-4.2725,-5.4932,0,0,1,0,1
29.740,100.421,253,36,22,22,71,0.1030,-0.3870,0.9030,-4.4556,2.7466,-1.8311,0,0,1,0,1
29.760,100.413,252,36,22,22,71,0.1000,-0.3923,0.9186,-3.3569,-2.6855,-2.6245,0,0,1,0,1
29.770,100.362,251,36,22,22,71,0.1038,-0.3953,0.8967,-1.1597,2.5635,-2.1973,0,0,1,0,1
29.750,100.423,252,36,22,22,71,0.0986,-0.3621,0.9069,-0.2441,4.2725,-0.5493,0,0,1,0,1
29.760,100.425,248,36,22,22,72,0.1132,-0.3851,0.8944,-2.9907,-5.0659,-2.1362,0,0,1,0,1
29.750,100.435,251,36,22,22,71,0.0643,-0.3810,0.9314,-10.1318,-6.5918,-6.9580,0,0,1,0,1
29.750,100.429,252,36,22,22,71,0.0920,-0.3766,0.8885,4.3335,5.6763,0.3662,0,0,1,0,1
29.760,100.425,251,36,22,22,71,0.0731,-0.3726,0.9200,-13.3667,-6.2256,-11.0474,0,0,1,0,1
29.740,100.293,252,36,22,22,70,0.0719,-0.3824,0.9260,0.7324,1.5869,2.9907,0,0,1,0,1
29.750,100.426,251,36,22,22,71,0.0747,-0.3535,0.9080,-3.6621,1.2207,-2.6855,0,0,1,0,1
29.750,100.425,251,36,22,22,70,0.0760,-0.3531,0.9246,-4.7607,2.1973,-1.4038,0,0,1,0,1
29.760,100.423,249,36,22,22,71,0.0756,-0.3561,0.9271,-1.2817,-1.0376,1.0376,0,0,1,0,1
29.750,100.422,250,36,22,22,70,0.0848,-0.3608,0.9060,-3.0518,-14.7705,0.7935,0,0,1,0,1
29.760,100.426,250,36,22,22,70,0.0839,-0.3625,0.9194,-3.6011,-0.6104,-4.0283,0,0,1,0,1
29.740,100.424,249,36,22,22,71,0.0834,-0.3468,0.9135,2.5024,3.8452,-0.1221,0,0,1,0,1
29.760,100.364,251,36,22,22,70,0.0905,-0.3459,0.9341,-5.0659,-0.3662,-3.3569,0,0,1,0,1
29.760,100.429,251,36,22,22,70,0.0857,-0.3502,0.9175,-4.1504,7.3853,-5.2490,0,0,1,0,1
29.760,100.428,251,36,22,22,70,0.1071,-0.3481,0.9116,0.5493,-0.6104,1.8921,0,0,1,0,1
29.740,100.428,252,36,22,22,71,0.0751,-0.3289,0.9353,-8.2397,6.4697,-12.8174,0,0,1,0,1
29.730,100.417,250,36,22,22,70,0.1138,-0.3445,0.9285,-6.6528,-2.1973,-5.3711,0,0,1,0,1
29.730,100.429,251,36,22,22,70,0.0956,-0.3307,0.9186,4.6997,1.5259,4.1504,0,0,1,0,1
29.740,100.354,251,36,22,22,70,0.0945,-0.3241,0.9316,-5.5542,-0.1221,0.0000,0,0,1,0,1
29.750,100.426,251,36,22,22,70,0.0984,-0.3270,0.9368,-5.0049,-1.8311,-3.1128,0,0,1,0,1
29.740,100.426,252,36,22,22,70,0.0946,-0.3291,0.9296,-3.4180,1.1597,-2.5635,0,0,1,0,1
29.720,100.425,251,36,22,22,70,0.0956,-0.3124,0.9089,-1.3428,2.2583,0.4272,0,0,1,0,1
29.740,100.422,252,36,22,22,70,0.0988,-0.3301,0.9260,-2.1973,0.4272,-1.5869,0,0,1,0,1
29.740,100.430,250,36,22,22,70,0.0947,-0.3105,0.9304,-1.0986,0.6104,1.0376,0,0,1,0,1
29.730,100.425,253,36,22,22,70,0.1003,-0.3223,0.9283,-2.5635,-1.4038,-1.0986,0,0,1,0,1
29.740,100.356,251,36,22,22,70,0.0914,-0.3182,0.9253,-2.8687,1.3428,0.4272,0,0,1,0,1
29.740,100.423,250,36,22,22,71,0.1041,-0.3148,0.9185,2.0752,1.6479,0.4883,0,0,1,0,1
29.740,100.427,249,36,22,22,70,0.0995,-0.3158,0.9376,-1.2817,0.9766,-0.3052,0,0,1,0,1
29.750,100.431,250,36,22,22,70,0.1074,-0.3209,0.9213,-0.9766,3.4790,-1.8311,0,0,1,0,1
29.750,100.427,250,36,22,22,71,0.1118,-0.3062,0.9412,-4.6997,1.0376,1.5869,0,0,1,0,1
29.750,100.421,249,36,22,22,70,0.1097,-0.3040,0.9353,2.2583,3.1128,2.7466,0,0,1,0,1
29.750,100.364,250,36,22,22,70,0.1261,-0.2974,0.9202,-6.2866,0.2441,0.9155,0,0,1,0,1
29.750,100.426,251,36,22,22,70,0.1093,-0.2959,0.9474,-10.4980,-4.5166,-7.2021,0,0,1,0,1
29.740,100.425,250,36,22,22,69,0.0624,-0.2539,0.9423,-61.5845,-49.1333,-56.1523,0,0,1,0,1
29.760,100.433,251,36,23,23,70,-0.1392,-0.0422,0.9818,-111.3281,-63.1104,-101.2573,0,0,1,0,1
29.760,100.430,251,36,24,23,71,-0.2633,0.0925,0.8627,-21.6675,-28.9917,-39.1235,1,0,0,0,1
29.750,100.426,251,36,24,23,68,-0.3264,0.2094,1.0302,-106.5063,-57.9834,-64.8193,1,0,0,0,1
29.750,100.423,252,36,24,23,69,-0.0914,0.3712,0.8102,-61.5845,38.6353,-2.1973,0,0,0,1,1
29.740,100.300,252,41,33,29,78,-0.2333,0.6191,0.6974,-39.0015,33.8745,9.5215,0,0,0,1,1
29.760,100.424,251,46,44,37,89,-0.2328,0.6395,0.8209,-25.8179,28.5034,16.4185,0,0,0,1,1
29.750,100.433,252,59,67,57,119,-0.0800,0.5386,0.7214,-19.1040,21.9116,-22.1558,0,0,0,1,1
29.730,100.418,251,71,79,68,148,-0.1084,0.6044,0.8079,26.5503,-6.4087,32.0435,0,0,0,1,1
29.730,100.422,252,65,74,66,136,-0.1304,0.5907,0.7655,-0.4883,10.9863,-4.0283,0,0,0,1,1
29.730,100.424,251,64,73,64,134,-0.0773,0.5677,0.7900,3.0518,12.4512,2.9297,0,0,0,1,1
29.740,100.320,250,66,75,67,139,-0.1158,0.5505,0.8197,10.4980,13.3057,15.0146,0,0,0,1,1
29.730,100.425,251,68,77,70,145,-0.0677,0.6084,0.7542,-18.6768,4.6387,-7.5073,0,0,0,1,1
29.720,100.425,252,76,86,79,164,-0.0570,0.5444,0.7416,14.2822,-7.8125,5.7373,0,0,0,1,1
29.750,100.433,252,67,77,71,144,-0.0793,0.5681,0.8137,0.2441,7.6904,-3.2959,0,0,0,1,1
29.740,100.423,252,67,76,69,142,-0.0695,0.5558,0.7805,2.5024,0.1831,8.0566,0,0,0,1,1
29.740,100.433,252,64,70,65,135,-0.1093,0.5541,0.8496,20.7520,14.4043,19.4702,0,0,0,1,1
29.740,100.428,251,59,59,56,125,-0.0375,0.4604,0.8000,16.1743,17.7612,2.2583,0,0,0,1,0
29.740,100.353,251,57,57,54,121,-0.0518,0.4652,0.8608,5.4321,-1.5259,6.2256,0,0,0,1,0
29.760,100.426,251,57,55,53,119,-0.0452,0.4865,0.8464,9.0942,12.6343,6.4697,0,0,0,1,0
29.750,100.428,253,55,53,52,117,-0.0507,0.4702,0.8748,10.5591,4.5166,11.1694,0,0,0,1,0
29.740,100.424,252,53,50,49,109,-0.0275,0.4337,0.8761,14.5264,19.3481,6.8359,0,0,0,1,0
29.730,100.424,251,50,45,46,101,0.0144,0.4049,0.8815,-6.3477,8.5449,3.6621,0,0,0,1,0
29.740,100.424,250,49,44,45,99,0.0009,0.4053,0.8702,7.1411,13.2446,5.7983,0,0,0,1,0
29.740,100.426,252,48,41,43,97,0.0555,0.3853,0.8828,15.5029,16.6626,4.9438,0,0,0,1,0
29.740,100.380,251,48,38,40,95,0.0494,0.3636,0.9135,1.9531,-6.4087,1.1597,0,0,0,1,0
29.740,100.419,252,48,39,41,95,0.0458,0.3516,0.9156,4.3335,1.4648,4.3945,0,0,0,1,0
29.760,100.428,252,47,38,40,95,0.0449,0.3861,0.8976,1.7700,5.9204,4.4556,0,0,0,1,0
29.750,100.425,252,47,36,38,94,0.0708,0.3540,0.9069,-1.0376,4.8828,-1.3428,0,0,0,1,0
29.750,100.428,250,47,35,37,93,0.0537,0.3525,0.9121,-2.8687,1.6479,2.2583,0,0,0,1,0
29.740,100.426,252,47,35,36,93,0.0797,0.3560,0.8853,0.3052,8.1787,2.1973,0,0,0,1,0
29.770,100.357,251,46,33,35,92,0.1042,0.3302,0.9041,-3.7231,1.2207,-2.5024,0,0,0,1,0
29.760,100.428,249,47,34,36,93,0.0822,0.3564,0.9105,2.8687,0.0610,3.7231,0,0,0,1,0
29.740,100.423,253,46,34,35,92,0.0970,0.3219,0.8999,-2.0752,-5.7983,-6.8970,0,0,0,1,0
29.750,100.423,253,47,35,37,93,0.0597,0.3693,0.9446,-2.5635,-0.3052,4.3945,0,0,0,1,0
29.770,100.427,250,47,34,36,93,0.0945,0.3605,0.8840,-5.9204,3.8452,-0.2441,0,0,0,1,0
29.760,100.425,251,47,35,37,93,0.0868,0.3501,0.9109,-6.8359,-3.4180,-1.7090,0,0,0,1,0
29.740,100.426,250,47,35,37,93,0.0897,0.3558,0.8882,-1.5869,1.1597,-0.8545,0,0,0,1,0
29.750,100.310,252,47,35,37,93,0.0969,0.3533,0.9061,0.5493,-2.3193,-0.7324,0,0,0,1,0
29.760,100.425,249,47,36,37,94,0.0841,0.3453,0.9093,-0.1221,-2.0142,0.9155,0,0,0,1,0
29.760,100.429,251,47,35,37,93,0.0724,0.3630,0.8955,-1.4038,2.6245,1.5869,0,0,0,1,0
29.760,100.423,252,47,35,37,93,0.0875,0.3490,0.9160,-2.0752,-4.9438,-2.2583,0,0,0,1,0
29.750,100.428,252,47,35,37,93,0.0793,0.3489,0.8942,2.4414,2.5024,3.0518,0,0,0,1,0
29.770,100.422,250,47,34,36,93,0.0875,0.3486,0.9130,-8.6060,-5.1270,-4.2725,0,0,0,1,0
29.760,100.342,249,47,36,38,94,0.0829,0.3561,0.9092,3.7231,5.4321,4.0894,0,0,0,1,0
29.750,100.422,249,47,35,37,93,0.0898,0.3496,0.9070,-4.5776,-5.1270,-1.4648,0,0,0,1,0
29.760,100.420,251,47,36,38,94,0.0819,0.3622,0.9020,4.3335,5.7983,3.4790,0,0,0,1,0
29.770,100.428,252,47,35,37,93,0.0892,0.3508,0.9105,-2.0142,-1.3428,-2.8076,0,0,0,1,0
29.770,100.432,251,47,35,38,94,0.0808,0.3569,0.9198,-4.5776,0.1831,2.7466,0,0,0,1,0
29.760,100.429,251,47,35,37,93,0.0969,0.3741,0.8939,15.0757,1.5869,-0.1221,0,0,0,1,0
29.760,100.424,250,47,36,38,94,0.0852,0.3536,0.9093,-2.1362,-4.7607,2.2583,0,0,0,1,0
29.770,100.331,252,47,35,37,94,0.0981,0.3654,0.8966,-1.2817,1.5869,0.3662,0,0,0,1,0
29.750,100.419,250,47,35,38,94,0.0835,0.3571,0.9031,4.3335,-0.6714,5.1880,0,0,0,1,0
29.760,100.423,251,47,34,36,93,0.0942,0.3585,0.8864,9.6436,-1.1597,8.7280,0,0,0,1,0
29.760,100.430,252,45,30,31,90,0.1006,0.2876,0.9205,35.0342,-7.2632,14.0381,0,0,0,1,0
29.760,100.430,249,43,29,29,85,0.1176,0.1783,0.9508,14.3433,-6.1035,7.9956,0,1,0,0,0
29.770,100.424,250,42,28,28,83,0.0024,0.1841,0.9343,81.9092,21.7896,91.8579,0,0,0,1,0
29.780,100.310,250,37,24,24,73,0.0358,0.0590,1.0125,103.0884,85.2051,67.8101,0,0,1,0,0
29.770,100.423,250,35,21,21,68,0.2825,-0.2343,0.8010,85.8154,28.3203,38.5742,0,0,1,0,0
29.770,100.426,252,36,22,22,69,0.3618,-0.3721,0.8165,57.4341,-1.5259,-14.8315,0,0,1,0,0
29.770,100.426,251,37,22,22,72,0.2363,-0.5181,0.8071,38.3911,-5.0049,-49.0723,0,0,1,0,0
29.760,100.428,252,38,23,23,73,0.0941,-0.7366,0.8076,-32.3486,-17.0898,-67.1387,0,0,1,0,0
29.780,100.423,250,37,23,22,72,0.1469,-0.5590,0.8071,27.7100,26.5503,27.2827,0,0,1,0,0
29.780,100.426,251,38,23,23,73,0.1504,-0.5433,0.7903,-20.4468,-5.4932,-14.5874,0,0,1,0,0
29.770,100.358,253,37,23,23,72,0.1704,-0.5458,0.8000,0.7324,8.6060,5.8594,0,0,1,0,0
29.770,100.419,252,37,22,22,73,0.1700,-0.5316,0.8093,-7.3242,-4.5776,-3.9673,0,0,1,0,0
29.780,100.427,252,37,23,22,72,0.1667,-0.5133,0.8357,-7.8735,6.5918,-1.5869,0,0,1,0,0
29.780,100.425,250,37,22,22,72,0.1652,-0.4969,0.8147,-4.7607,1.4038,-1.0986,0,0,1,0,0
29.780,100.425,252,37,22,22,72,0.1511,-0.5133,0.8582,-7.9956,-5.9204,-3.6011,0,0,1,0,0
29.780,100.426,251,37,22,22,72,0.1527,-0.5021,0.8527,-3.0518,4.8218,1.1597,0,0,1,0,0
29.780,100.369,252,37,22,22,72,0.1737,-0.5137,0.8184,-1.3428,-3.2959,-0.6104,0,0,1,0,0
29.780,100.427,251,37,22,22,72,0.1675,-0.4917,0.8315,-0.7935,3.2959,0.9155,0,0,1,0,0
29.760,100.421,251,37,22,22,71,0.1693,-0.5007,0.8420,-3.3569,3.2349,-0.3052,0,0,1,0,0
29.760,100.424,252,37,22,22,72,0.1835,-0.4867,0.8336,-5.3711,-0.0610,-0.0610,0,0,1,0,0
29.790,100.428,251,37,22,22,71,0.1454,-0.4982,0.8669,-7.5684,-5.4321,-6.1035,0,0,1,0,0
29.780,100.427,251,37,22,22,71,0.1721,-0.4812,0.8385,-1.9531,4.5166,2.4414,0,0,1,0,0
29.770,100.423,251,37,22,22,71,0.1605,-0.4905,0.8417,-8.3618,-5.1880,-7.3242,0,0,1,0,0
29.800,100.368,249,36,22,22,71,0.1293,-0.4857,0.8917,-10.2539,3.6621,-5.2490,0,0,1,0,0
29.780,100.425,251,36,22,22,71,0.1827,-0.4648,0.8263,2.8687,0.3052,3.5400,0,0,1,0,0
29.780,100.424,251,36,22,22,72,0.1443,-0.4735,0.8979,-20.4468,-15.4419,-8.0566,0,0,1,0,0
29.780,100.425,252,36,22,22,70,0.1560,-0.3884,0.8903,-38.4521,-7.3242,-23.1323,0,0,1,0,0
29.790,100.430,250,35,22,22,69,0.0137,-0.2015,1.0929,-149.4141,-8.9722,-143.9209,0,0,1,0,0
29.790,100.428,252,37,24,24,72,0.1790,-0.1580,0.7659,-72.0825,15.6860,-32.1045,0,0,1,0,0
29.770,100.421,252,40,26,26,77,-0.0568,0.0199,0.7310,-63.5376,-62.3779,106.6284,0,0,1,0,0
29.780,100.340,251,41,28,28,80,-0.5237,0.4556,1.0787,-24.4141,-101.4404,144.7754,1,0,0,0,0
29.770,100.426,252,39,27,27,77,-0.4202,0.2407,0.7775,-6.0425,-28.3203,-63.5376,1,0,0,0,0
29.750,100.428,251,40,36,36,79,-0.6343,0.3311,0.8953,-53.1006,-75.6836,-36.7432,1,0,0,0,0
29.740,100.427,252,41,43,43,83,-0.5551,0.2986,0.8309,81.1157,63.7207,46.8140,1,0,0,0,0
29.730,100.424,252,38,26,26,74,-0.4061,0.2102,0.8004,7.8735,17.2119,0.2441,1,0,0,0,0
29.720,100.428,249,37,26,25,72,-0.4440,0.1608,0.8940,-13.3057,-16.1743,-26.0620,1,0,0,0,0
29.740,100.306,250,38,26,26,73,-0.4318,0.1428,0.8827,16.8457,11.8408,1.6479,1,0,0,0,0
29.740,100.426,251,37,26,25,73,-0.3892,0.1924,0.8684,6.0425,8.3618,5.7983,1,0,0,0,0
29.740,100.429,252,38,26,25,73,-0.3993,0.1884,0.8545,-19.1040,-2.3193,-10.3149,1,0,0,0,1
29.740,100.429,249,38,26,26,74,-0.4097,0.2100,0.8848,-0.7324,8.1177,-1.0986,1,0,0,0,1
29.750,100.428,252,38,26,26,74,-0.3871,0.2168,0.8633,-4.8828,7.0801,0.2441,1,0,0,0,1
29.730,100.423,251,38,27,26,75,-0.3737,0.2279,0.8898,-9.3384,4.1504,-9.0332,1,0,0,0,1
29.750,100.429,252,39,27,27,76,-0.3474,0.2257,0.8795,-1.2817,9.4604,5.4321,1,0,0,0,1
29.730,100.358,249,39,27,27,77,-0.3070,0.2402,0.8800,0.2441,18.7378,-2.6245,1,0,0,0,1
29.750,100.425,252,40,27,27,78,-0.3019,0.2046,0.8611,-11.7798,11.8408,-30.6396,1,0,0,0,1
29.740,100.427,251,40,28,28,79,-0.3550,0.2697,0.9735,-22.6440,-17.0898,12.1460,1,0,0,0,1
29.740,100.426,252,40,28,27,78,-0.2819,0.2290,0.8792,9.0942,22.2778,9.2163,1,0,0,0,1
29.750,100.427,251,40,28,27,79,-0.2743,0.2430,0.9323,-9.8877,3.8452,-16.4185,1,0,0,0,1
29.740,100.424,252,41,28,28,81,-0.2346,0.2075,0.9023,3.6011,-4.5166,6.6528,1,0,0,0,1
29.740,100.338,251,41,28,28,80,-0.2382,0.2163,0.9075,6.5308,6.0425,1.0986,1,0,0,0,1
29.750,100.429,252,41,28,28,80,-0.2505,0.2335,0.9130,-1.1597,10.3149,-4.3335,1,0,0,0,1
29.740,100.423,251,41,28,28,81,-0.2380,0.2201,0.9231,2.4414,-3.1738,6.6528,1,0,0,0,1
29.750,100.423,250,41,28,28,80,-0.2302,0.2288,0.9280,-7.5684,6.0425,-6.1646,1,0,0,0,1
29.740,100.423,251,41,28,28,81,-0.2263,0.2374,0.9304,0.5493,2.6245,4.3335,1,0,0,0,1
29.760,100.424,251,41,28,28,81,-0.2302,0.2365,0.9392,0.3662,3.7842,0.1831,1,0,0,0,1
29.750,100.429,252,41,28,28,81,-0.2067,0.2109,0.9093,0.1221,0.9155,-0.9155,1,0,0,0,1
29.770,100.360,251,41,28,28,81,-0.2383,0.2299,0.9329,2.6245,4.1504,0.1831,1,0,0,0,1
29.760,100.426,252,41,28,28,81,-0.2178,0.2294,0.9458,2.9297,-2.0142,-1.1597,1,0,0,0,1
29.770,100.426,251,41,28,28,81,-0.2286,0.2246,0.9225,-7.3242,-7.9346,4.2725,1,0,0,0,1
29.770,100.425,252,41,28,28,81,-0.2444,0.2437,0.9594,-4.5776,0.8545,-0.3052,1,0,0,0,1
29.760,100.426,250,41,28,28,82,-0.2179,0.1830,0.8806,-2.8687,-6.1646,12.5732,1,0,0,0,1
29.780,100.433,251,41,28,28,81,-0.2495,0.2587,0.9399,10.9863,9.4604,7.5684,1,0,0,0,1
29.770,100.363,252,41,28,28,81,-0.2399,0.2217,0.9136,-5.3711,-7.3242,-5.2490,1,0,0,0,1
29.780,100.417,249,41,28,28,81,-0.2429,0.2192,0.9359,-3.1738,1.6479,-3.7231,1,0,0,0,1
29.790,100.429,251,41,28,28,81,-0.2445,0.2371,0.9185,0.1221,3.1738,2.3804,1,0,0,0,1
29.780,100.428,251,41,28,28,81,-0.2323,0.2299,0.9207,3.6011,7.2021,-2.0142,1,0,0,0,1
29.790,100.429,252,41,28,28,82,-0.2345,0.2316,0.9371,-1.6479,-1.2817,0.6714,1,0,0,0,1
29.780,100.421,252,41,28,28,82,-0.2378,0.2180,0.9286,-0.1221,-2.3804,0.2441,1,0,0,0,1
29.790,100.426,250,41,28,28,82,-0.2408,0.2201,0.9390,-4.5166,-2.5635,1.6479,1,0,0,0,1
29.780,100.357,251,41,28,28,82,-0.2034,0.2078,0.8730,13.0005,-0.7935,6.9580,1,0,0,0,1
29.790,100.432,252,41,28,28,80,-0.2792,0.2244,0.9761,-21.0571,-11.4746,-14.2822,1,0,0,0,1
29.780,100.423,251,41,28,28,81,-0.2296,0.1931,0.8971,10.0708,9.8877,9.0942,1,0,0,0,1
29.780,100.424,251,41,28,28,80,-0.2631,0.2377,0.9338,-2.6855,-5.4321,-0.6714,1,0,0,0,1
29.780,100.429,252,41,28,28,81,-0.2413,0.2019,0.9292,0.7935,4.6997,-5.6152,1,0,0,0,1
29.760,100.422,251,41,28,28,81,-0.2484,0.2275,0.9308,1.1597,4.3945,4.3335,1,0,0,0,1
29.770,100.414,251,41,28,28,81,-0.2395,0.2190,0.9271,-6.5308,-3.5400,-1.5869,1,0,0,0,1
29.770,100.355,251,41,28,28,81,-0.2305,0.2101,0.9247,-1.7090,0.2441,-1.0376,1,0,0,0,1
29.780,100.423,250,41,28,28,81,-0.2489,0.2194,0.9333,-1.4038,-2.1973,0.4272,1,0,0,0,1
29.780,100.430,251,41,28,28,81,-0.2289,0.2119,0.9276,3.1738,2.9907,-1.3428,1,0,0,0,1
